time,ax,ay,az,aT
0.0030,0.0491,-0.0078,0.0529,0.073
0.0030,0.0864,0.0445,0.1711,0.197
0.0030,0.0834,0.0418,-0.1388,0.167
0.0040,-0.0311,0.0343,0.0404,0.061
0.0070,0.0522,-0.0039,0.1089,0.121
0.0110,0.0871,-0.0750,0.0700,0.135
0.0170,0.0816,-0.0366,-0.1252,0.154
0.0210,-0.0826,0.0776,-0.0435,0.121
0.0260,-0.0320,0.1268,0.0399,0.137
0.0330,0.0608,0.0261,0.0942,0.115
0.0360,0.0865,-0.0595,-0.1130,0.154
0.0410,-0.0090,0.0217,-0.0907,0.094
0.0450,-0.0042,0.0950,-0.0045,0.095
0.0520,0.0052,0.0467,0.0406,0.062
0.0550,-0.0186,-0.0510,-0.1116,0.124
0.0610,-0.0564,-0.0054,-0.0941,0.110
0.0660,0.0010,0.0753,0.0467,0.089
0.0710,0.0861,-0.0108,0.0107,0.087
0.0760,0.0640,-0.0321,-0.0867,0.112
0.0800,-0.0858,0.0536,-0.0717,0.124
0.0850,-0.0851,0.0674,0.0618,0.125
0.0900,0.0199,-0.0708,0.0138,0.075
0.0950,0.0553,-0.0867,-0.0290,0.107
0.1030,0.0501,0.0635,-0.0810,0.114
0.1050,-0.0880,0.1388,0.0716,0.179
0.1090,-0.0352,-0.0213,0.0828,0.092
0.1170,-0.0041,-0.0900,-0.0152,0.091
0.1200,0.0625,-0.0607,-0.1123,0.142
0.1250,-0.0353,0.0633,0.0974,0.121
0.1290,0.0765,0.0295,-0.0315,0.088
0.1380,-0.0571,-0.0206,-0.0289,0.067
0.1390,0.0289,-0.0134,-0.1734,0.176
0.1440,-0.0758,-0.0275,0.0250,0.084
0.1570,0.0481,-0.0819,0.0319,0.100
0.1580,-0.0805,-0.0290,0.0032,0.086
0.1600,0.0200,0.0827,-0.1036,0.134
0.1640,-0.1842,0.0631,0.0491,0.201
0.1730,0.0640,-0.0821,0.0914,0.139
0.1750,0.0658,-0.0979,0.0479,0.127
0.1780,0.0368,-0.0211,-0.0735,0.085
0.1840,-0.0631,0.1357,0.0339,0.153
0.1880,0.0157,-0.0007,0.0146,0.022
0.1930,-0.0202,-0.0434,0.1237,0.133
0.2000,0.0585,-0.0550,-0.1740,0.192
0.2030,-0.1080,0.0404,0.0292,0.119
0.2080,0.0329,-0.0406,0.0455,0.069
0.2130,-0.0197,-0.0142,0.2255,0.227
0.2180,0.0541,-0.0260,-0.1869,0.196
0.2230,-0.0815,0.0217,0.0496,0.098
0.2280,0.0877,-0.0473,0.2010,0.224
0.2390,0.0938,0.0456,0.1780,0.206
0.2400,0.0860,0.0144,-0.2530,0.268
0.2420,-0.1210,0.0428,0.0505,0.138
0.2470,-0.0110,-0.0595,0.1331,0.146
0.2520,0.0411,-0.0401,0.1320,0.144
0.2570,0.0836,-0.0565,-0.2582,0.277
0.2620,-0.1828,0.0293,0.0737,0.199
0.2690,-0.0176,0.0029,0.2108,0.212
0.2720,0.0844,0.0076,0.1924,0.210
0.2760,0.1289,-0.0234,-0.1794,0.222
0.2820,-0.0144,0.0219,0.0428,0.050
0.2880,-0.0166,0.0264,0.1160,0.120
0.2930,0.0522,0.0427,0.0320,0.075
0.2970,0.0446,-0.0004,-0.1866,0.192
0.3050,-0.0696,0.0898,0.0783,0.138
0.3060,-0.0477,0.0654,0.0824,0.116
0.3110,0.0190,-0.0490,-0.0772,0.093
0.3170,0.0212,-0.1104,-0.1478,0.186
0.3210,-0.0405,-0.0501,-0.0587,0.087
0.3270,-0.0260,0.1259,0.0770,0.150
0.3310,0.0476,0.0371,0.0052,0.061
0.3360,0.0188,-0.0511,-0.1278,0.139
0.3420,-0.0238,0.0633,0.0442,0.081
0.3450,0.0760,0.0746,0.0438,0.115
0.3520,0.0444,-0.0233,-0.0539,0.074
0.3560,0.0061,-0.0682,-0.0724,0.100
0.3600,-0.0579,0.0367,-0.0338,0.076
0.3650,-0.0385,0.0791,-0.0122,0.089
0.3700,0.0115,0.0096,0.0306,0.034
0.3750,-0.0195,-0.1329,-0.0717,0.152
0.3800,-0.0831,0.0414,-0.0663,0.114
0.3860,-0.0159,0.1122,0.0434,0.121
0.3900,0.0363,-0.0216,-0.0210,0.047
0.3950,-0.0185,-0.0854,0.0527,0.102
0.4010,0.0174,0.0008,-0.0830,0.085
0.4070,-0.0017,0.0957,0.0363,0.102
0.4100,0.0575,0.0166,0.0242,0.065
0.4150,-0.0213,0.0022,-0.0069,0.022
0.4190,-0.0352,0.0188,-0.0946,0.103
0.4250,-0.0230,0.0541,0.0818,0.101
0.4290,0.1099,-0.0673,-0.0376,0.134
0.4420,-0.0049,-0.0643,0.1075,0.125
0.4420,0.0642,0.0762,-0.1639,0.192
0.4440,-0.0739,0.0518,0.0534,0.105
0.4500,0.1425,-0.0600,0.1051,0.187
0.4580,0.0511,-0.0834,0.0260,0.101
0.4590,-0.0084,0.0526,-0.1214,0.133
0.4640,-0.1886,0.0949,0.0386,0.215
0.4690,0.0738,-0.0316,-0.0471,0.093
0.4730,0.0376,-0.0360,0.0980,0.111
0.4780,0.1015,-0.0262,-0.2089,0.234
0.4840,-0.0985,0.0500,0.0562,0.124
0.4880,0.0636,-0.0216,0.0937,0.115
0.4930,-0.0320,-0.0475,0.0526,0.078
0.4980,0.0491,-0.0662,-0.1448,0.167
0.5030,-0.1222,0.0507,0.0747,0.152
0.5080,0.0875,-0.0495,-0.0113,0.101
0.5130,0.0820,-0.0182,0.0813,0.117
0.5190,0.1053,-0.0253,-0.1709,0.202
0.5240,-0.0615,0.0389,0.0394,0.083
0.5280,0.0647,-0.0682,0.1055,0.141
0.5370,-0.0048,0.0012,0.1426,0.143
0.5380,0.0831,-0.0392,-0.1837,0.205
0.5420,-0.0338,0.0656,0.0788,0.108
0.5470,0.0731,-0.0109,0.1494,0.167
0.5520,0.0724,0.0057,0.2169,0.229
0.5570,0.0459,-0.0015,-0.2167,0.222
0.5620,-0.1157,0.0697,0.0390,0.141
0.5680,0.0369,-0.0021,0.0552,0.066
0.5720,0.0790,-0.0709,0.0833,0.135
0.5760,0.0833,-0.0728,-0.1903,0.220
0.5820,-0.0762,0.0655,0.0557,0.115
0.5880,-0.0163,0.0365,0.0979,0.106
0.5910,0.0026,-0.0349,0.1327,0.137
0.5960,0.0784,-0.0371,-0.1199,0.148
0.6010,-0.0431,0.0486,0.0045,0.065
0.6060,0.0261,0.0363,0.0139,0.047
0.6110,0.0401,-0.0043,0.0802,0.090
0.6170,0.0659,-0.0424,-0.1031,0.130
0.6210,-0.0200,0.0719,-0.0097,0.075
0.6260,0.0109,0.0714,0.0876,0.114
0.6310,0.0130,0.0257,0.0418,0.051
0.6360,0.0036,-0.0386,-0.1080,0.115
0.6410,-0.0769,-0.0217,-0.1048,0.132
0.6460,-0.0574,0.0047,0.0622,0.085
0.6570,0.0164,-0.0144,0.0475,0.052
0.6580,-0.0383,-0.0144,-0.1024,0.110
0.6600,-0.0781,0.0853,-0.0802,0.141
0.6650,-0.0348,0.0727,0.1198,0.144
0.6700,0.0532,-0.0797,-0.0260,0.099
0.6790,0.0480,-0.0601,-0.0566,0.095
0.6800,-0.0637,0.0140,-0.0609,0.089
0.6850,-0.0063,0.1207,0.0844,0.147
0.6900,0.0315,0.0390,0.0078,0.051
0.6940,-0.0044,-0.0609,-0.0611,0.086
0.7000,-0.0255,0.0179,-0.0820,0.088
0.7100,-0.0159,0.0461,0.1418,0.150
0.7110,0.0863,0.0077,-0.0232,0.090
0.7140,0.0001,-0.0328,-0.0158,0.036
0.7230,0.0193,0.0600,-0.0845,0.105
0.7240,-0.1374,0.0808,0.0087,0.160
0.7290,0.0299,-0.0337,-0.0483,0.066
0.7430,-0.0321,-0.0715,-0.0218,0.081
0.7440,-0.0103,-0.0069,-0.1925,0.193
0.7450,-0.1050,0.1119,0.0630,0.166
0.7490,0.0644,-0.0313,-0.0110,0.072
0.7540,-0.0311,-0.0619,0.0365,0.078
0.7630,0.0357,-0.0186,-0.0872,0.096
0.7640,-0.0737,0.0148,0.0203,0.078
0.7720,0.0645,-0.0708,0.0202,0.098
0.7770,0.0164,-0.0892,0.0556,0.106
0.7800,-0.0170,-0.0054,-0.0825,0.084
0.7840,-0.0500,0.0777,0.1009,0.137
0.7900,0.0854,-0.0582,-0.0471,0.114
0.7930,0.0750,-0.0720,0.1598,0.191
0.7980,0.1053,-0.0098,-0.0931,0.141
0.8060,-0.0757,0.1065,0.0334,0.135
0.8100,0.0815,0.0060,-0.0072,0.082
0.8120,0.0521,0.0036,0.0807,0.096
0.8170,0.0682,-0.0417,-0.1336,0.156
0.8230,-0.1600,0.0275,-0.0043,0.162
0.8270,-0.0353,-0.0201,0.0693,0.080
0.8320,0.0432,-0.0010,0.1802,0.185
0.8370,0.0809,-0.0889,-0.2152,0.246
0.8420,-0.0668,0.0708,0.0737,0.122
0.8470,0.0571,-0.0081,0.1040,0.119
0.8530,0.0518,-0.0056,0.0912,0.105
0.8570,0.0372,-0.0697,-0.1563,0.175
0.8620,-0.1648,0.0448,0.0728,0.186
0.8670,-0.0355,0.0491,0.0508,0.079
0.8710,0.0310,-0.0487,0.0599,0.083
0.8760,0.0949,-0.0673,-0.1233,0.170
0.8810,0.0302,-0.0003,-0.0060,0.031
0.8890,0.0323,0.0638,0.0913,0.116
0.8910,0.0794,0.0774,0.0550,0.124
0.8960,0.0171,-0.0537,-0.1329,0.144
0.9020,-0.0945,-0.0153,-0.0298,0.100
0.9090,-0.0344,0.0037,0.0369,0.051
0.9110,0.0394,0.0273,0.0105,0.049
0.9160,0.0486,-0.0133,-0.1343,0.144
0.9250,-0.0371,-0.0013,-0.0383,0.053
0.9260,-0.0630,0.0058,0.0996,0.118
0.9310,-0.0626,0.0343,0.0585,0.092
0.9370,-0.0502,-0.0467,-0.0275,0.074
0.9400,-0.1043,-0.0012,-0.0628,0.122
0.9450,-0.0061,0.0201,0.0540,0.058
0.9500,0.0555,-0.0394,0.0512,0.085
0.9570,0.0716,0.0131,-0.0632,0.096
0.9610,-0.0167,0.0794,-0.0935,0.124
0.9650,0.0260,0.0764,0.1137,0.139
0.9710,0.0803,-0.0452,-0.0604,0.110
0.9760,0.0037,-0.0567,0.0397,0.069
0.9800,-0.0745,0.0695,-0.1362,0.170
0.9850,-0.0881,0.1259,0.0358,0.158
0.9930,0.0074,-0.0459,0.0307,0.056
0.9940,-0.0213,-0.1072,0.0542,0.122
0.9990,-0.0280,0.0218,-0.1266,0.131
1.0050,-0.0396,0.1165,0.0335,0.128
1.0090,0.1005,-0.0244,0.0403,0.111
1.0140,0.0046,-0.0978,0.1064,0.145
1.0210,0.0357,0.0406,-0.1436,0.153
1.0250,-0.1235,0.0830,0.0308,0.152
1.0290,0.0412,-0.0458,0.1255,0.140
1.0340,0.0549,-0.0194,0.0936,0.110
1.0440,0.0736,-0.0098,-0.1801,0.195
1.0440,-0.1001,0.0970,0.0848,0.163
1.0480,0.0358,-0.0153,0.0817,0.091
1.0570,0.0235,-0.0247,-0.0329,0.047
1.0600,0.0802,-0.0103,-0.1750,0.193
1.0630,-0.0818,-0.0054,0.0638,0.104
1.0680,0.0542,-0.0623,0.0680,0.107
1.0810,-0.0103,-0.0095,-0.0061,0.015
1.0810,0.0349,-0.0166,-0.1200,0.126
1.0840,-0.0816,0.0546,0.0685,0.120
1.0890,0.0733,-0.0668,0.1510,0.181
1.0950,0.0536,-0.0284,0.0714,0.094
1.0980,0.0723,-0.0567,-0.1784,0.201
1.1060,-0.0896,0.0482,0.1648,0.194
1.1080,0.1080,0.0930,0.0424,0.149
1.1130,0.1164,0.1041,0.0895,0.180
1.1170,0.0847,-0.0700,-0.1675,0.200
1.1220,-0.1626,-0.0005,0.0926,0.187
1.1270,-0.0663,-0.0480,0.0562,0.099
1.1320,0.0433,0.0069,0.0059,0.044
1.1400,0.0786,-0.0549,-0.2504,0.268
1.1500,-0.0666,0.0143,0.0198,0.071
1.1500,-0.0755,0.0427,0.0173,0.088
1.1520,-0.0131,0.0517,0.1192,0.131
1.1570,-0.0391,-0.0673,-0.1879,0.203
1.1620,-0.1004,0.0116,-0.0274,0.105
1.1660,-0.0522,-0.0573,0.0986,0.125
1.1720,0.0146,-0.0260,0.1334,0.137
1.1760,0.0456,-0.0211,-0.1596,0.167
1.1810,-0.0448,0.0692,0.0055,0.083
1.1860,0.0360,-0.0002,0.0101,0.037
1.1910,0.0640,-0.0618,0.0409,0.098
1.1960,0.0351,-0.0686,-0.0947,0.122
1.2000,-0.1192,0.0529,-0.0607,0.144
1.2060,-0.0825,0.0192,0.0798,0.116
1.2100,0.0129,-0.0260,0.0507,0.058
1.2160,0.0577,-0.0284,-0.0399,0.076
1.2230,-0.0091,0.0788,-0.0253,0.083
1.2250,-0.0233,0.0900,0.0223,0.096
1.2300,0.0100,-0.0223,0.0577,0.063
1.2350,0.0005,-0.0624,-0.0424,0.075
1.2400,-0.0706,0.0448,-0.0871,0.121
1.2450,-0.0321,0.1204,0.0868,0.152
1.2500,0.0202,-0.0372,0.0078,0.043
1.2550,-0.0322,-0.1009,-0.0065,0.106
1.2600,-0.0222,-0.0076,-0.0681,0.072
1.2650,-0.0600,0.0470,0.0083,0.077
1.2710,0.0805,0.0325,0.0937,0.128
1.2750,0.0229,-0.0531,-0.0281,0.064
1.2790,-0.0126,0.0019,-0.1750,0.175
1.2840,-0.1144,0.0115,0.0946,0.149
1.2890,0.0097,-0.0503,0.0630,0.081
1.2940,-0.0711,-0.0522,-0.0562,0.105
1.2990,0.0413,0.0622,-0.0842,0.113
1.3040,-0.0493,0.0427,0.1206,0.137
1.3090,0.1456,-0.0170,0.0935,0.174
1.3140,0.0756,-0.0548,-0.0046,0.093
1.3190,0.0823,-0.0234,-0.1920,0.210
1.3250,-0.1011,0.0574,0.2913,0.314
1.3290,0.0087,0.0023,0.0373,0.038
1.3340,-0.0816,0.0307,-0.0508,0.101
1.3400,0.0118,-0.0358,-0.0860,0.094
1.3440,-0.0479,-0.0188,0.1473,0.156
1.3480,0.0853,-0.0709,0.0369,0.117
1.3530,0.0230,0.0649,0.0319,0.076
1.3580,0.0537,0.0881,-0.2437,0.265
1.3630,-0.1247,0.0209,0.1167,0.172
1.3680,0.0827,-0.0932,0.0398,0.131
1.3730,-0.0248,-0.0332,0.0039,0.042
1.3780,-0.0150,0.0383,-0.0840,0.093
1.3820,-0.1405,0.0688,0.0259,0.159
1.3880,0.0694,-0.1215,0.0304,0.143
1.3920,0.0663,-0.0920,0.0705,0.134
1.3970,0.0824,-0.0675,-0.1626,0.194
1.4020,-0.0724,0.0968,0.1021,0.158
1.4080,0.0444,0.0438,0.0894,0.109
1.4130,0.0699,-0.0421,0.0910,0.122
1.4170,0.0670,-0.1129,-0.1399,0.192
1.4220,-0.0902,-0.0384,0.1436,0.174
1.4270,0.0670,0.0426,0.0807,0.113
1.4320,0.0568,0.0778,0.1062,0.143
1.4370,0.0753,-0.0130,-0.1130,0.136
1.4460,-0.0747,0.0109,0.0493,0.090
1.4470,0.0161,-0.0389,0.0417,0.059
1.4520,0.0728,-0.0078,0.1055,0.128
1.4570,0.0153,-0.0268,-0.1849,0.187
1.4620,-0.1555,0.0471,0.0183,0.163
1.4670,-0.0189,-0.0007,0.0277,0.034
1.4730,0.0806,0.0136,0.1484,0.169
1.4770,0.0799,-0.0458,-0.1613,0.186
1.4810,-0.0322,0.0282,-0.0579,0.072
1.4860,-0.0248,0.0587,0.0185,0.066
1.4930,0.0084,0.0131,0.0919,0.093
1.4960,-0.0176,-0.0059,-0.1793,0.180
1.5000,-0.1358,0.0037,-0.0402,0.142
1.5060,-0.0137,0.0156,0.1144,0.116
1.5100,0.0503,-0.0415,0.0161,0.067
1.5170,0.0024,-0.0556,-0.0884,0.104
1.5240,-0.1065,0.0611,-0.0995,0.158
1.5320,-0.0535,0.0463,0.1267,0.145
1.5330,0.0795,-0.0703,0.0402,0.114
1.5360,0.0172,-0.0816,-0.1072,0.136
1.5400,-0.1204,0.0449,-0.0233,0.131
1.5450,-0.1004,0.1086,0.0528,0.157
1.5500,0.0236,-0.0465,-0.0781,0.094
1.5600,0.0233,-0.1030,-0.0276,0.109
1.5610,-0.0242,0.0379,-0.1033,0.113
1.5690,-0.0502,0.0945,0.0755,0.131
1.5700,0.0284,0.0012,-0.0272,0.039
1.5750,-0.0359,-0.0890,-0.0957,0.136
1.5790,-0.0544,-0.0265,-0.0926,0.111
1.5840,-0.0966,0.0544,0.0648,0.128
1.5890,0.0679,0.0041,0.0239,0.072
1.5940,-0.0159,-0.0268,0.0617,0.069
1.5980,0.0080,0.0256,-0.1500,0.152
1.6030,-0.1534,0.0324,0.0150,0.157
1.6090,0.0519,-0.0841,0.0054,0.099
1.6130,-0.0104,-0.0811,0.0243,0.085
1.6180,0.0255,0.0595,-0.0874,0.109
1.6230,-0.1122,0.1374,0.0580,0.187
1.6280,0.0737,-0.0488,0.0433,0.098
1.6330,-0.0266,-0.0793,0.1023,0.132
1.6420,0.0569,-0.0502,-0.1549,0.172
1.6440,-0.1263,0.0665,0.0814,0.164
1.6480,0.0739,-0.0195,0.0854,0.115
1.6530,0.0021,-0.0288,0.0159,0.033
1.6580,0.0568,-0.0286,-0.1693,0.181
1.6630,-0.0884,0.0975,0.0836,0.156
1.6680,0.0855,-0.0266,0.1067,0.139
1.6730,0.0373,0.0022,0.0156,0.041
1.6770,0.0206,-0.0737,-0.1933,0.208
1.6820,-0.1480,-0.0209,0.1618,0.220
1.6870,0.0097,-0.0231,0.0727,0.077
1.6920,0.0974,0.0601,0.0792,0.139
1.6980,0.0800,0.0003,-0.1730,0.191
1.7020,-0.0914,0.0168,0.0349,0.099
1.7080,0.0516,-0.0759,0.1058,0.140
1.7140,0.0512,-0.0278,0.0740,0.094
1.7170,0.0840,-0.0395,-0.2042,0.224
1.7240,-0.0424,-0.0011,0.1084,0.116
1.7270,0.0455,-0.0438,0.0956,0.115
1.7320,0.0593,0.0443,0.1328,0.152
1.7360,0.0803,0.0130,-0.1982,0.214
1.7420,-0.0745,0.0201,0.1001,0.126
1.7460,0.0826,-0.0369,0.1349,0.162
1.7510,0.0888,-0.0176,0.0697,0.114
1.7620,0.0383,-0.0198,-0.1801,0.185
1.7620,-0.1398,0.0871,0.0516,0.173
1.7680,-0.0698,0.0319,0.0464,0.090
1.7800,0.0753,-0.0325,0.0413,0.092
1.7800,0.0462,-0.1082,-0.1204,0.168
1.7810,-0.1178,0.0186,0.0277,0.122
1.7860,-0.1263,0.0850,0.0038,0.152
1.7910,-0.0945,-0.0106,0.0607,0.113
1.7950,-0.0107,-0.0794,-0.1083,0.135
1.8000,-0.0627,-0.0195,0.0397,0.077
1.8070,0.0042,0.0376,0.0655,0.076
1.8110,-0.0007,0.0112,0.0673,0.068
1.8160,-0.0434,-0.0554,-0.0828,0.109
1.8200,-0.1449,-0.0217,-0.0868,0.170
1.8250,-0.0085,0.0686,0.0682,0.097
1.8300,0.0577,0.0206,0.0272,0.067
1.8350,-0.0021,-0.0390,-0.1391,0.144
1.8410,-0.0801,0.0278,-0.1261,0.152
1.8450,-0.1246,0.0229,0.1146,0.171
1.8500,-0.0359,-0.0343,-0.0026,0.050
1.8560,-0.0166,-0.0150,-0.0571,0.061
1.8620,0.0264,0.0658,-0.1278,0.146
1.8650,-0.0190,0.0368,0.0963,0.105
1.8710,0.0901,-0.0346,-0.0801,0.125
1.8760,-0.0127,-0.0107,-0.0391,0.042
1.8790,-0.0149,0.0771,-0.1076,0.133
1.8840,-0.1192,0.0528,0.0736,0.150
1.8900,0.0788,-0.0734,0.0493,0.118
1.8970,-0.0240,-0.0847,-0.0484,0.100
1.8990,0.0381,0.0394,-0.1714,0.180
1.9040,-0.1000,0.0747,0.1124,0.168
1.9090,0.0906,-0.0375,0.0166,0.099
1.9140,-0.0122,-0.0206,-0.0761,0.080
1.9180,-0.0404,-0.0229,-0.1158,0.125
1.9240,-0.1373,0.0295,0.1201,0.185
1.9320,0.0868,-0.0562,0.0455,0.113
1.9330,0.0458,0.0202,-0.0356,0.061
1.9380,0.0765,-0.0132,-0.1302,0.152
1.9430,-0.0475,0.0367,0.1556,0.167
1.9480,0.1000,-0.0397,-0.0141,0.108
1.9520,0.0729,0.0034,-0.0045,0.073
1.9590,0.0677,-0.0465,-0.2560,0.269
1.9660,-0.1299,-0.0342,0.0238,0.136
1.9700,0.0633,-0.0315,0.0734,0.102
1.9730,0.0342,0.0612,-0.0150,0.072
1.9810,0.0436,0.0394,-0.1620,0.172
1.9820,-0.0611,-0.0155,0.0339,0.072
1.9880,0.0722,-0.0841,0.0692,0.131
1.9920,0.0668,-0.0382,0.0995,0.126
1.9970,-0.0452,-0.0095,-0.1410,0.148
2.0020,-0.1727,0.0949,0.1022,0.222
2.0080,0.0706,-0.0221,0.1061,0.129
2.0120,0.1291,-0.0362,0.1052,0.170
2.0170,0.0878,-0.0596,-0.1329,0.170
2.0220,-0.1074,0.0833,0.1197,0.181
2.0270,0.0239,0.0257,0.0784,0.086
2.0310,0.0876,-0.0623,0.0801,0.134
2.0360,0.0891,-0.0926,-0.1508,0.198
2.0450,0.0054,0.0363,-0.0356,0.051
2.0490,0.0101,0.0290,0.1071,0.111
2.0520,-0.0374,0.0240,0.1323,0.140
2.0610,0.0176,-0.0664,-0.2034,0.215
2.0660,-0.1225,-0.0042,0.0498,0.132
2.0670,0.0137,0.0148,0.0304,0.037
2.0710,0.0183,0.0217,0.0658,0.072
2.0760,-0.0172,0.0286,-0.1697,0.173
2.0810,-0.0691,0.0236,-0.0093,0.074
2.0860,0.0286,-0.0502,0.0667,0.088
2.0910,0.0898,-0.0592,0.0424,0.116
2.0950,0.0393,-0.0256,-0.0434,0.064
2.1010,-0.0581,0.1217,-0.0264,0.137
2.1050,-0.0244,0.0827,0.1186,0.147
2.1160,0.0847,-0.0935,0.0203,0.128
2.1160,0.0768,-0.0951,-0.0487,0.132
2.1200,0.0787,0.0884,-0.0720,0.139
2.1260,-0.0406,0.1375,0.0449,0.150
2.1300,-0.0095,-0.0106,0.0042,0.015
2.1340,-0.0475,-0.1197,-0.0196,0.130
2.1390,-0.0779,-0.0570,-0.0479,0.108
2.1450,-0.0109,0.0620,0.0830,0.104
2.1500,0.0840,0.0615,0.0064,0.104
2.1540,0.0050,0.0229,-0.0696,0.073
2.1640,0.0264,0.0274,-0.0857,0.094
2.1650,-0.0118,0.0248,0.0835,0.088
2.1690,0.1424,0.0271,-0.0667,0.160
2.1780,0.0558,0.0030,-0.0353,0.066
2.1790,-0.0560,0.0410,-0.1489,0.164
2.1840,-0.1885,0.0503,0.1537,0.248
2.1890,0.0501,-0.0902,-0.0611,0.120
2.1940,-0.0287,-0.0516,0.0557,0.081
2.1990,0.0428,0.0366,-0.1417,0.153
2.2040,-0.0905,0.1265,0.0066,0.156
2.2100,0.0786,-0.0596,0.0302,0.103
2.2130,0.0115,-0.0827,0.0324,0.090
2.2180,0.0377,-0.0108,-0.1482,0.153
2.2240,-0.0313,0.0678,0.0974,0.123
2.2310,0.0827,-0.0632,0.0776,0.130
2.2330,0.0463,-0.0010,0.0461,0.065
2.2380,0.0532,-0.0105,-0.1441,0.154
2.2440,-0.1133,0.0465,0.1134,0.167
2.2480,0.0892,0.0082,0.0507,0.103
2.2530,0.0812,0.0058,0.0123,0.082
2.2580,0.0925,-0.0132,-0.2013,0.222
2.2630,-0.0838,0.0131,0.0946,0.127
2.2670,0.0426,-0.0701,0.0843,0.118
2.2720,-0.0196,-0.0411,0.0100,0.047
2.2780,-0.0098,-0.0621,-0.1443,0.157
2.2820,-0.1425,0.0144,0.1369,0.198
2.2880,0.0532,-0.0142,0.0954,0.110
2.2930,0.0813,0.0595,0.1018,0.143
2.2970,0.0807,-0.0123,-0.1767,0.195
2.3020,-0.0625,-0.0050,0.0905,0.110
2.3080,0.0590,-0.0192,0.0613,0.087
2.3120,0.0442,0.0094,0.0893,0.100
2.3240,0.0297,-0.0144,-0.1488,0.152
2.3250,-0.1032,0.0426,0.0471,0.121
2.3270,0.0280,-0.0242,0.0016,0.037
2.3310,0.1178,0.0187,0.0632,0.135
2.3360,0.0790,-0.0574,-0.1912,0.215
2.3460,-0.0970,0.0760,0.0358,0.128
2.3460,-0.0867,0.0208,0.0142,0.090
2.3510,-0.0221,-0.0388,0.0402,0.060
2.3580,-0.0384,-0.0621,-0.1642,0.180
2.3630,-0.0879,0.0168,0.0554,0.105
2.3660,0.0218,0.0381,0.0692,0.082
2.3710,0.0761,0.0046,0.1944,0.209
2.3760,0.0519,-0.0121,-0.0825,0.098
2.3810,-0.0290,0.0522,-0.0367,0.070
2.3850,0.0305,0.0138,0.0609,0.070
2.3900,0.0990,-0.0383,0.1007,0.146
2.3960,0.0318,-0.0594,-0.0923,0.114
2.4000,-0.0987,0.0811,-0.0987,0.161
2.4050,-0.1215,0.0710,0.0588,0.153
2.4100,0.0479,0.0373,0.0393,0.072
2.4150,0.0475,-0.0271,-0.1319,0.143
2.4200,-0.0690,0.0729,-0.0786,0.127
2.4260,-0.1300,0.0367,0.1095,0.174
2.4320,-0.0365,-0.0396,-0.0527,0.075
2.4370,-0.0457,-0.0535,-0.0903,0.114
2.4400,-0.0618,0.0325,-0.0824,0.108
2.4450,-0.0328,0.0893,0.1841,0.207
2.4490,0.0433,-0.0158,0.0188,0.050
2.4540,-0.0401,-0.0798,-0.0336,0.095
2.4620,-0.0158,0.0014,-0.1021,0.103
2.4660,-0.0252,0.0418,0.0933,0.105
2.4690,0.1197,-0.0085,0.0119,0.121
2.4740,0.0285,-0.0512,-0.0001,0.059
2.4800,-0.0024,0.0252,-0.0879,0.091
2.4840,-0.0855,0.0867,0.0695,0.140
2.4890,0.0907,-0.0137,0.0357,0.098
2.4930,0.0092,-0.0492,-0.0026,0.050
2.4990,-0.0050,0.0367,-0.1307,0.136
2.5030,-0.1734,0.0957,0.0911,0.218
2.5080,0.0225,-0.0379,0.0310,0.054
2.5160,0.0008,0.0026,0.0568,0.057
2.5180,-0.0442,-0.0117,-0.1121,0.121
2.5230,-0.1909,0.0666,0.0810,0.218
2.5280,0.0219,-0.0289,0.0091,0.037
2.5330,-0.0069,-0.0263,0.0138,0.030
2.5380,0.0146,0.0072,-0.1572,0.158
2.5470,-0.1444,0.0641,0.0577,0.168
2.5560,0.0369,-0.0717,0.0382,0.089
2.5570,0.0530,-0.0829,0.0783,0.126
2.5580,0.0835,-0.0680,-0.1383,0.175
2.5620,-0.1497,0.1010,0.1523,0.236
2.5680,0.0414,0.0645,0.1416,0.161
2.5720,0.0528,-0.0214,0.0550,0.079
2.5770,0.1188,-0.0997,-0.1709,0.231
2.5820,-0.0222,-0.0135,0.1959,0.198
2.5870,0.0586,0.0459,0.0424,0.086
2.5920,0.0155,0.0953,-0.0077,0.097
2.5970,0.0226,-0.0715,-0.1762,0.191
2.6010,-0.0844,-0.0733,0.1409,0.180
2.6070,0.0230,-0.1249,0.0994,0.161
2.6110,0.0110,0.0208,0.1223,0.125
2.6170,-0.0127,0.0253,-0.2323,0.234
2.6220,-0.1263,0.0370,0.1351,0.189
2.6280,0.0574,-0.0084,0.0817,0.100
2.6320,0.0971,-0.0130,0.1048,0.143
2.6360,0.0657,-0.0248,-0.1713,0.185
2.6410,-0.1293,0.0824,0.0389,0.158
2.6460,-0.1307,-0.0204,0.0243,0.134
2.6510,-0.0419,-0.0629,0.0502,0.091
2.6560,0.0155,-0.1147,-0.1448,0.185
2.6640,-0.0582,0.0429,0.0937,0.118
2.6690,-0.0340,0.1256,0.0194,0.132
2.6720,0.0255,0.0486,0.0287,0.062
2.6750,0.0372,-0.0871,-0.1210,0.154
2.6810,0.0274,-0.0603,0.0627,0.091
2.6850,0.0533,0.0280,0.1049,0.121
2.6900,0.0669,0.0752,-0.0312,0.105
2.6950,-0.0546,0.0081,-0.0689,0.088
2.7000,-0.0850,0.0080,-0.0114,0.086
2.7050,-0.0441,0.0151,0.0219,0.051
2.7100,0.0819,-0.0230,-0.0329,0.091
2.7150,-0.0018,0.0008,-0.0682,0.068
2.7200,-0.0301,0.0578,-0.0581,0.087
2.7250,-0.0798,0.0502,0.0658,0.115
2.7300,0.0251,-0.0118,-0.0534,0.060
2.7350,0.0154,-0.0355,-0.0174,0.042
2.7400,-0.0819,0.0740,-0.0695,0.130
2.7540,-0.0147,0.0994,0.0047,0.101
2.7550,0.0137,-0.0272,0.0379,0.049
2.7610,-0.0196,-0.0507,-0.0004,0.054
2.7660,-0.0170,0.0684,-0.1072,0.128
2.7680,-0.0049,0.0702,0.0646,0.096
2.7740,0.0898,-0.0561,-0.0262,0.109
2.7770,0.0772,-0.0225,-0.0212,0.083
2.7840,-0.0252,0.0535,-0.1539,0.165
2.7840,-0.1246,0.0364,0.0325,0.134
2.7960,0.0613,-0.0635,0.0014,0.088
2.7960,0.0014,-0.0416,0.0583,0.072
2.7980,0.0633,-0.0151,-0.1842,0.195
2.8030,-0.0534,0.0444,0.0594,0.091
2.8080,0.0893,-0.0272,0.0873,0.128
2.8130,0.0316,-0.0127,0.0463,0.057
2.8180,-0.0017,-0.0056,-0.1321,0.132
2.8230,-0.0965,0.0301,0.1158,0.154
2.8280,0.0915,-0.0934,0.0484,0.139
2.8330,0.0692,-0.0358,0.0670,0.103
2.8370,0.0618,0.0024,-0.1661,0.177
2.8420,-0.1521,0.0807,0.0891,0.194
2.8500,0.1006,0.0137,0.0908,0.136
2.8520,0.0972,-0.0386,0.0568,0.119
2.8570,0.1060,-0.0740,-0.2213,0.256
2.8620,-0.1226,0.0690,0.1412,0.199
2.8670,0.0255,0.0090,0.2017,0.204
2.8720,0.0750,0.0683,0.0909,0.136
2.8780,0.1267,-0.0700,-0.2183,0.262
2.8820,0.0356,0.0351,0.1631,0.171
2.8870,0.0826,-0.0364,0.1309,0.159
2.8920,0.0417,0.1016,0.0516,0.121
2.8980,0.0819,0.0438,-0.2431,0.260
2.9020,-0.0398,0.0174,0.0603,0.074
2.9070,0.0791,-0.0445,0.1215,0.152
2.9120,0.0949,-0.0465,0.0279,0.109
2.9160,0.0801,-0.0106,-0.1693,0.188
2.9210,-0.0557,0.1129,0.0671,0.143
2.9260,0.0657,0.0123,0.0238,0.071
2.9330,0.0791,-0.0495,-0.0500,0.106
2.9360,0.0690,-0.0705,-0.1563,0.185
2.9410,-0.0929,0.0701,0.0348,0.121
2.9460,-0.0684,0.0718,-0.0177,0.101
2.9510,-0.0632,-0.0593,-0.0128,0.088
2.9560,0.0061,-0.0850,-0.1219,0.149
2.9670,-0.0484,0.0012,-0.0022,0.048
2.9670,-0.0077,0.1008,0.0310,0.106
2.9700,0.0588,0.0003,-0.0618,0.085
2.9770,0.0037,-0.0662,-0.0162,0.068
2.9830,-0.0817,0.0482,-0.0445,0.105
2.9850,-0.0431,0.0193,-0.0607,0.077
2.9920,-0.0404,-0.0472,0.0679,0.092
3.0000,0.0216,-0.0018,-0.0228,0.031
3.0000,-0.1184,0.0742,-0.0867,0.164
3.0050,-0.0840,0.0784,0.0398,0.122
3.0100,0.0375,-0.0645,-0.0294,0.080
3.0150,-0.0010,-0.0925,-0.0125,0.093
3.0190,-0.0934,0.0531,-0.0860,0.138
3.0240,-0.1399,0.0906,-0.0236,0.168
3.0290,0.0107,-0.0358,0.0241,0.044
3.0340,-0.0488,-0.1256,0.0666,0.150
3.0400,0.0205,-0.0084,-0.1523,0.154
3.0440,-0.1337,0.0605,0.0721,0.163
3.0490,0.0406,-0.0230,0.0643,0.079
3.0560,-0.0001,-0.0727,0.0780,0.107
3.0590,0.0072,0.0108,-0.1433,0.144
3.0640,-0.0687,0.1151,0.0311,0.138
3.0680,0.0457,0.0075,0.0285,0.054
3.0740,0.0524,0.0122,-0.0334,0.063
3.0790,0.0048,-0.0329,-0.2538,0.256
3.0840,-0.0995,0.0292,0.1042,0.147
3.0880,0.0602,-0.0303,0.0868,0.110
3.0930,0.0692,-0.0395,0.0314,0.086
3.0980,0.1162,-0.0154,-0.1753,0.211
3.1030,-0.0271,0.0797,0.1228,0.149
3.1080,0.0892,0.0505,0.0696,0.124
3.1150,0.0055,0.0239,-0.0663,0.071
3.1170,0.0555,-0.0713,-0.2959,0.309
3.1220,-0.1182,-0.1062,0.0697,0.174
3.1280,0.0249,-0.0744,0.0050,0.079
3.1320,-0.0892,0.0164,0.0856,0.125
3.1370,-0.0077,0.0234,-0.2283,0.230
3.1420,-0.1476,-0.0171,0.1367,0.202
3.1470,0.1122,-0.1546,0.1379,0.236
3.1520,0.0969,-0.0537,0.0988,0.148
3.1570,0.1130,0.0322,-0.1939,0.227
3.1680,-0.0729,0.0984,0.0616,0.137
3.1690,0.0772,0.0003,0.1465,0.166
3.1720,0.0859,-0.0377,0.1168,0.150
3.1790,0.0852,-0.0730,-0.2614,0.284
3.1820,-0.0981,0.0581,0.0824,0.141
3.1870,-0.0785,-0.0160,0.1814,0.198
3.1920,-0.0020,-0.0040,0.1158,0.116
3.1970,0.0361,-0.0157,-0.2340,0.237
3.2010,-0.0875,0.0082,0.1619,0.184
3.2060,0.0532,0.0367,0.0728,0.097
3.2110,0.0835,-0.0111,0.0745,0.112
3.2160,0.0521,-0.0038,-0.0827,0.098
3.2230,-0.0264,0.0770,-0.0085,0.082
3.2260,-0.0477,0.0431,0.0818,0.104
3.2360,0.0712,-0.0309,0.0692,0.104
3.2360,0.0208,-0.1043,-0.1520,0.186
3.2410,-0.1358,0.0056,0.0391,0.141
3.2500,-0.0516,0.1147,0.0150,0.127
3.2500,0.0058,0.0403,0.0268,0.049
3.2630,0.0841,-0.0432,-0.1277,0.159
3.2640,0.0218,0.0070,-0.0531,0.058
3.2660,0.0051,0.0402,0.0043,0.041
3.2700,0.0643,0.0185,-0.0266,0.072
3.2760,-0.0476,0.0017,-0.1569,0.164
3.2810,-0.1064,0.0492,-0.0606,0.132
3.2860,-0.0106,0.0512,-0.0293,0.060
3.2900,0.0321,-0.0370,-0.0101,0.050
3.2950,-0.0393,-0.0699,-0.0550,0.097
3.3010,-0.1147,-0.0101,-0.1329,0.176
3.3050,-0.0735,0.0161,0.0675,0.101
3.3090,0.0858,-0.0456,0.0836,0.128
3.3150,0.0115,-0.0667,-0.0595,0.090
3.3200,-0.0856,0.0691,-0.0685,0.130
3.3240,-0.0943,0.0662,0.1101,0.159
3.3300,0.0890,-0.0838,-0.0285,0.126
3.3340,0.0716,-0.0664,0.0595,0.114
3.3390,0.0237,0.0599,-0.1355,0.150
3.3440,-0.1117,0.1116,0.0839,0.179
3.3490,0.0504,-0.0577,0.1022,0.128
3.3540,0.0237,-0.0976,-0.0576,0.116
3.3590,0.0379,0.0051,-0.1331,0.138
3.3670,-0.0786,0.1285,0.1314,0.200
3.3700,0.0572,0.0301,0.0235,0.069
3.3740,-0.0193,-0.0271,-0.0407,0.053
3.3780,0.0143,-0.0410,-0.1401,0.147
3.3830,-0.0332,0.0424,0.1886,0.196
3.3880,0.0596,-0.0695,0.1467,0.173
3.3930,-0.0097,-0.0096,0.0125,0.019
3.4010,0.0807,-0.0048,-0.1418,0.163
3.4030,-0.0316,0.0760,0.1560,0.176
3.4080,0.1252,-0.0053,0.0598,0.139
3.4140,0.0411,0.0113,0.0213,0.048
3.4180,0.0716,-0.0007,-0.2328,0.244
3.4230,-0.1402,-0.0102,0.1227,0.187
3.4270,0.0625,-0.0670,0.0458,0.102
3.4330,-0.0686,-0.0214,0.0573,0.092
3.4370,0.0057,0.0452,-0.1307,0.138
3.4420,-0.0822,0.0780,0.0674,0.132
3.4490,0.1438,-0.0650,0.0455,0.164
3.4560,0.1212,-0.0002,0.1020,0.158
3.4570,0.0753,0.0211,-0.1883,0.204
3.4620,-0.2170,0.0731,0.0695,0.239
3.4690,-0.0160,-0.0247,0.1045,0.109
3.4710,0.0905,-0.0221,0.0372,0.100
3.4760,0.0827,-0.0648,-0.2241,0.248
3.4810,-0.0956,0.0401,0.0673,0.124
3.4870,-0.1066,-0.0172,0.0501,0.119
3.4910,0.0792,-0.0099,0.1422,0.163
3.5030,0.1023,-0.0503,-0.1864,0.219
3.5040,-0.0764,0.0497,0.0524,0.105
3.5070,-0.0732,0.0707,0.1042,0.146
3.5110,-0.0016,0.0345,0.0179,0.039
3.5170,0.0364,-0.0584,-0.1531,0.168
3.5220,-0.0589,-0.0412,0.0380,0.081
3.5260,-0.0157,0.0683,0.0543,0.089
3.5360,0.0058,0.0369,0.0728,0.082
3.5360,0.0652,-0.0110,-0.1461,0.160
3.5410,-0.0751,-0.0203,0.0331,0.085
3.5460,-0.0010,0.0298,0.0755,0.081
3.5510,0.0439,0.0201,0.0274,0.056
3.5560,0.0151,-0.0157,-0.1175,0.120
3.5600,-0.0844,0.0604,-0.0240,0.107
3.5650,-0.1004,-0.0256,0.0047,0.104
3.5700,0.0354,-0.1511,-0.0381,0.160
3.5750,0.0090,-0.0786,-0.0757,0.110
3.5810,-0.0075,0.1356,-0.0205,0.137
3.5850,-0.0004,0.1581,-0.0227,0.160
3.5900,0.0137,-0.0164,0.0320,0.039
3.5950,-0.0101,-0.1515,-0.0086,0.152
3.6010,-0.0454,-0.0150,-0.1010,0.112
3.6050,-0.0473,0.1014,0.0469,0.121
3.6100,0.0715,0.0294,-0.0175,0.079
3.6160,-0.0383,-0.0350,-0.0031,0.052
3.6200,-0.0498,0.0317,-0.0862,0.104
3.6240,-0.0376,0.0338,0.0261,0.057
3.6290,0.0599,-0.0236,0.0519,0.083
3.6340,-0.0308,-0.0519,0.0586,0.084
3.6390,-0.0778,0.0600,-0.1507,0.180
3.6440,-0.1340,0.0690,0.0713,0.167
3.6490,0.0569,-0.0692,-0.0385,0.097
3.6540,0.0823,-0.0805,-0.0002,0.115
3.6590,0.0295,0.0246,-0.1260,0.132
3.6700,-0.1557,0.1548,0.0578,0.227
3.6700,-0.0476,-0.0007,0.0858,0.098
3.6760,-0.0237,-0.1027,0.0210,0.107
3.6780,0.0667,-0.1232,-0.1880,0.234
3.6850,-0.0666,0.0344,0.0960,0.122
3.6880,0.0857,-0.0039,0.1260,0.152
3.6930,-0.0243,0.0696,0.0633,0.097
3.7000,0.0592,0.0096,-0.2339,0.241
3.7050,-0.1193,-0.0165,0.1620,0.202
3.7080,0.0879,-0.0496,0.1013,0.143
3.7130,-0.0220,-0.0019,0.0222,0.031
3.7180,-0.0478,-0.0115,-0.2319,0.237
3.7230,-0.1614,0.0503,0.0880,0.191
3.7280,0.1031,-0.0379,0.0350,0.115
3.7330,0.0950,0.0051,0.0490,0.107
3.7370,0.0422,-0.0211,-0.2172,0.222
3.7430,-0.2238,0.0527,0.1406,0.270
3.7510,-0.0630,-0.1115,0.0089,0.128
3.7520,0.0179,-0.0536,0.0657,0.087
3.7570,0.0820,-0.0058,-0.1033,0.132
3.7620,-0.0777,0.0869,0.0020,0.117
3.7710,0.0179,0.0080,0.0921,0.094
3.7720,0.0958,-0.0704,0.1270,0.174
3.7780,0.0785,-0.1030,-0.2490,0.281
3.7830,-0.1308,0.0118,0.0758,0.152
3.7870,-0.0632,0.0140,0.1131,0.130
3.7920,0.0583,0.0424,0.1169,0.137
3.7960,0.0556,-0.0671,-0.1451,0.169
3.8040,-0.0611,-0.0736,-0.0300,0.100
3.8060,-0.0607,-0.0588,0.1554,0.177
3.8110,0.0463,-0.0108,0.2039,0.209
3.8190,0.0485,0.0106,-0.2154,0.221
3.8210,-0.1107,0.1031,0.0260,0.153
3.8260,-0.0363,0.0122,0.0424,0.057
3.8320,-0.0006,-0.0495,-0.0362,0.061
3.8350,-0.0124,-0.0325,-0.1474,0.152
3.8400,-0.1474,0.0484,-0.0750,0.172
3.8450,-0.1225,0.0410,0.1131,0.172
3.8500,-0.0647,-0.0234,0.0765,0.103
3.8550,-0.0524,-0.1087,-0.1448,0.188
3.8600,-0.1255,0.0227,0.0130,0.128
3.8700,-0.0533,0.0914,0.1292,0.167
3.8700,0.0300,-0.0043,-0.0499,0.058
3.8760,-0.0225,-0.0470,-0.0945,0.108
3.8810,-0.0981,0.0175,-0.0676,0.120
3.8860,-0.0641,0.0909,0.1488,0.186
3.8900,0.0550,0.0213,-0.0493,0.077
3.8950,-0.0286,-0.0738,-0.0940,0.123
3.9000,-0.1113,0.0027,-0.0363,0.117
3.9050,-0.0844,0.0999,0.0850,0.156
3.9090,0.0491,-0.0242,-0.0652,0.085
3.9140,0.0155,-0.0645,-0.0314,0.073
3.9200,0.0201,0.0215,-0.0762,0.082
3.9240,-0.0724,0.1329,0.1308,0.200
3.9290,0.0422,0.0274,-0.0126,0.052
3.9370,-0.0199,-0.0821,-0.0362,0.092
3.9390,0.0277,-0.0599,-0.0881,0.110
3.9430,-0.0294,0.0260,0.0906,0.099
3.9520,0.0586,-0.0075,-0.0027,0.059
3.9540,-0.0818,0.0543,0.0447,0.108
3.9580,-0.0335,0.0064,-0.1360,0.140
3.9630,-0.0427,-0.0221,0.1143,0.124
3.9680,0.1545,-0.0931,0.0327,0.183
3.9730,0.0463,-0.0164,0.0751,0.090
3.9780,0.0605,0.0716,-0.0963,0.134
3.9930,-0.1132,0.0899,0.1204,0.188
3.9930,0.1058,-0.1101,0.0767,0.171
3.9940,0.0787,-0.0926,0.1567,0.198
3.9980,0.0712,0.0054,-0.1460,0.162
4.0030,-0.0645,0.1122,0.0783,0.151
4.0080,0.1091,-0.0240,0.0397,0.119
4.0120,0.0725,-0.0357,0.0963,0.126
4.0180,0.0792,-0.0307,-0.1323,0.157
4.0290,-0.1160,0.0670,0.1037,0.169
4.0290,0.0415,-0.0546,0.0839,0.108
4.0340,0.0862,-0.0376,0.0998,0.137
4.0380,0.0760,-0.0516,-0.2119,0.231
4.0420,-0.0528,0.0817,0.1055,0.144
4.0470,0.0471,0.0123,0.1117,0.122
4.0520,0.0918,-0.0091,0.1369,0.165
4.0560,0.1196,-0.0137,-0.1988,0.232
4.0610,0.0523,0.0292,0.0093,0.061
4.0690,0.0897,-0.0185,0.1539,0.179
4.0720,0.0770,0.0220,0.1384,0.160
4.0760,0.0765,0.0029,-0.1475,0.166
4.0830,-0.0025,0.0717,0.0246,0.076
4.0870,0.0780,0.0023,0.0315,0.084
4.0910,0.0939,-0.0405,0.1475,0.179
4.0960,0.0742,-0.0473,-0.2002,0.219
4.1020,-0.1350,0.0931,0.0744,0.180
4.1060,-0.0106,0.0687,0.0714,0.100
4.1100,0.0864,-0.0006,0.1040,0.135
4.1170,0.0880,-0.0647,-0.1412,0.179
4.1200,-0.0122,0.0165,-0.0001,0.021
4.1250,-0.0240,0.0757,-0.0001,0.079
4.1300,0.0828,-0.0008,0.0593,0.102
4.1350,0.0726,-0.0602,-0.1904,0.212
4.1400,-0.0583,0.0352,-0.0654,0.094
4.1450,-0.0698,0.0729,0.1202,0.157
4.1540,-0.0006,0.0154,-0.0279,0.032
4.1610,-0.0362,-0.0797,-0.1439,0.168
4.1640,-0.0312,-0.0008,-0.0431,0.053
4.1650,0.0260,0.0776,0.0451,0.093
4.1700,0.1016,0.0390,-0.0170,0.110
4.1750,0.0366,-0.0254,-0.0572,0.073
4.1790,-0.0655,0.0531,-0.0899,0.123
4.1850,-0.1267,0.0028,0.0817,0.151
4.1890,0.0807,-0.0470,-0.0210,0.096
4.1940,0.0159,-0.1487,-0.0541,0.159
4.2000,0.0183,0.0542,-0.0892,0.106
4.2040,-0.1124,0.1155,0.0729,0.177
4.2090,0.0593,0.0054,-0.0084,0.060
4.2140,-0.0029,-0.0729,0.0059,0.073
4.2200,-0.0004,-0.0106,-0.0843,0.085
4.2240,-0.0883,0.1153,0.0872,0.169
4.2300,0.0429,0.0241,-0.0132,0.051
4.2350,-0.0714,-0.0922,0.0368,0.122
4.2390,-0.0518,-0.0274,-0.0869,0.105
4.2440,-0.0655,0.0416,0.0894,0.118
4.2490,0.0844,-0.0157,0.0317,0.091
4.2540,0.0408,-0.0393,0.1240,0.136
4.2580,0.0477,-0.0224,-0.1120,0.124
4.2630,-0.1044,0.0822,0.0551,0.144
4.2710,0.0459,-0.0489,0.0593,0.090
4.2810,0.0028,-0.0343,0.0565,0.066
4.2820,0.0693,0.0230,-0.1504,0.167
4.2860,-0.0783,0.0822,0.0146,0.114
4.2900,0.0718,-0.0371,0.0334,0.087
4.2930,0.0093,-0.0297,0.1043,0.109
4.2970,0.0733,-0.0391,-0.1386,0.162
4.3040,-0.0459,0.0586,0.0856,0.113
4.3070,0.0826,-0.0369,0.0849,0.124
4.3120,0.0130,0.0251,0.1483,0.151
4.3170,0.0629,-0.0083,-0.2160,0.225
4.3220,-0.1274,0.0154,0.0421,0.135
4.3270,0.0943,-0.0202,0.1224,0.156
4.3320,0.0957,0.0275,0.0834,0.130
4.3370,0.0570,-0.0013,-0.2376,0.244
4.3420,-0.1499,0.0319,0.0609,0.165
4.3470,-0.0800,-0.0728,0.0913,0.142
4.3520,0.0842,-0.0295,0.1261,0.154
4.3570,0.0860,-0.0294,-0.2712,0.286
4.3610,-0.1209,0.0798,0.0704,0.161
4.3700,-0.0464,0.0411,0.1006,0.118
4.3710,0.0797,-0.0328,0.0381,0.094
4.3770,0.0838,-0.0775,-0.2185,0.247
4.3810,-0.0878,-0.0057,0.0918,0.127
4.3860,-0.1180,0.0087,0.0009,0.118
4.3910,-0.0649,0.0253,0.0555,0.089
4.3960,0.0021,-0.0129,-0.2179,0.218
4.4010,-0.0358,-0.0009,0.0829,0.090
4.4060,0.0332,-0.0246,0.0300,0.051
4.4100,0.0803,-0.0101,0.0037,0.081
4.4150,0.0441,-0.0457,-0.1150,0.131
4.4200,-0.0512,0.0353,0.0734,0.096
4.4250,-0.0341,0.0136,0.0277,0.046
4.4300,0.0490,-0.0197,0.0631,0.082
4.4360,0.0084,-0.0410,-0.0917,0.101
4.4400,-0.0460,0.0471,-0.0126,0.067
4.4450,-0.0692,0.0515,0.0136,0.087
4.4540,0.0095,-0.0060,0.0277,0.030
4.4550,0.0164,-0.0771,0.0156,0.080
4.4600,-0.0738,0.0896,-0.0439,0.124
4.4650,-0.0779,0.0605,0.0467,0.109
4.4700,0.0769,-0.0088,0.0605,0.098
4.4750,0.0287,-0.0776,-0.0159,0.084
4.4800,-0.0188,0.0298,-0.0893,0.096
4.4870,-0.0732,0.0936,0.0514,0.129
4.4900,0.0318,-0.0044,0.0344,0.047
4.4940,-0.1346,-0.0732,0.0507,0.161
4.4990,-0.1095,0.0295,-0.1989,0.229
4.5040,-0.2201,0.0743,0.0662,0.242
4.5090,0.0783,-0.0520,-0.0317,0.099
4.5180,-0.0031,-0.0872,0.0754,0.115
4.5190,-0.0006,-0.0154,-0.1554,0.156
4.5230,-0.2188,0.1272,0.0903,0.269
4.5280,0.0107,-0.0044,0.0468,0.048
4.5340,-0.0773,-0.0780,0.0346,0.115
4.5380,0.0066,-0.0869,-0.2244,0.241
4.5430,-0.1761,0.0159,0.0290,0.179
4.5480,-0.0372,-0.0626,0.0929,0.118
4.5530,-0.0345,0.0329,0.0588,0.076
4.5590,0.0300,0.0185,-0.2881,0.290
4.5630,-0.0486,0.0397,0.0252,0.068
4.5720,0.0560,-0.1291,0.1223,0.186
4.5730,-0.0180,-0.0426,-0.0045,0.047
4.5780,0.0488,-0.0163,-0.2987,0.303
4.5830,-0.1224,0.0409,0.1048,0.166
4.5900,0.0518,-0.0615,0.0612,0.101
4.5930,0.0727,-0.0207,0.0369,0.084
4.5980,0.1531,-0.0633,-0.3406,0.379
4.6040,-0.0213,-0.0082,0.1368,0.139
4.6080,0.0784,-0.0318,0.1333,0.158
4.6120,0.0089,0.0088,-0.0197,0.023
4.6170,0.0564,-0.0791,-0.3019,0.317
4.6240,-0.1101,-0.0120,0.2013,0.230
4.6290,0.0331,-0.0096,0.0359,0.050
4.6370,0.0187,-0.0381,0.0166,0.046
4.6380,0.0827,-0.0567,-0.1900,0.215
4.6420,-0.0581,-0.0349,0.1628,0.176
4.6470,0.0893,0.0010,0.0617,0.109
4.6520,0.0910,0.0366,0.0375,0.105
4.6560,0.0784,-0.0325,-0.1953,0.213
4.6610,-0.0288,0.0295,0.1527,0.158
4.6660,0.0616,0.0055,0.0186,0.065
4.6720,0.0563,-0.0063,0.0896,0.106
4.6760,0.0748,-0.0206,-0.2006,0.215
4.6810,-0.0373,0.0484,0.1048,0.121
4.6860,0.0365,0.0218,0.0327,0.054
4.6910,0.0836,0.0335,0.0443,0.100
4.6950,0.0831,-0.0333,-0.1245,0.153
4.7000,0.0137,0.0407,0.0307,0.053
4.7060,0.0823,0.0641,0.0186,0.106
4.7100,0.0719,0.0398,0.0564,0.100
4.7150,0.0667,0.0252,-0.0556,0.090
4.7200,-0.0500,0.0819,-0.0290,0.100
4.7250,0.0311,0.0646,0.1445,0.161
4.7300,0.0853,-0.0308,0.0222,0.093
4.7360,0.0774,0.0003,0.0149,0.079
4.7450,0.0057,0.1213,-0.0564,0.134
4.7450,-0.0345,0.1179,0.0699,0.141
4.7500,0.0440,-0.0208,0.0479,0.068
4.7550,0.0529,-0.0539,0.0238,0.079
4.7590,0.0360,0.1031,-0.0998,0.148
4.7640,-0.0615,0.1639,0.1359,0.222
4.7720,-0.0278,0.0510,-0.0432,0.072
4.7780,-0.0775,-0.0657,0.0948,0.139
4.7800,-0.0199,-0.0342,-0.1860,0.190
4.7840,-0.0412,0.0586,0.1383,0.156
4.7910,0.0041,0.0794,0.1015,0.129
4.7940,-0.1361,0.0739,0.0438,0.161
4.7990,-0.0635,0.0663,-0.2580,0.274
4.8050,-0.0867,-0.0150,0.2567,0.271
4.8090,0.0870,-0.1121,0.0766,0.161
4.8130,-0.0679,-0.0043,0.1116,0.131
4.8200,-0.0955,0.0812,-0.1978,0.234
4.8260,-0.2276,0.0354,0.1360,0.268
4.8290,0.0469,-0.1190,0.0779,0.150
4.8340,-0.0723,-0.0659,0.1200,0.155
4.8400,-0.0217,-0.0274,-0.3010,0.303
4.8430,-0.2681,0.1104,0.1737,0.338
4.8480,-0.0192,-0.0211,-0.0010,0.029
4.8560,-0.1520,-0.0565,0.0085,0.162
4.8610,0.0440,-0.0181,-0.2858,0.290
4.8630,-0.2007,0.0413,0.0678,0.216
4.8680,0.0476,-0.0610,0.0506,0.092
4.8730,-0.1450,-0.0653,0.0739,0.175
4.8780,-0.0462,-0.0814,-0.3040,0.318
4.8820,-0.2310,0.0666,0.1470,0.282
4.8890,0.0602,-0.0716,-0.0084,0.094
4.8920,0.0075,-0.0497,-0.0060,0.051
4.8970,0.0835,-0.0801,-0.3025,0.324
4.9020,-0.0785,-0.0011,0.0441,0.090
4.9070,0.1214,-0.0106,0.0556,0.134
4.9120,0.0728,0.0108,0.0242,0.077
4.9170,0.0510,-0.0606,-0.3509,0.360
4.9220,-0.0941,-0.0079,0.0554,0.110
4.9270,0.0678,-0.0742,-0.0352,0.107
4.9320,0.0932,-0.0381,0.0292,0.105
4.9380,0.0903,-0.0472,-0.3199,0.336
4.9430,-0.1547,0.0623,0.0292,0.169
4.9460,0.0815,0.0144,0.0029,0.083
4.9510,0.1210,-0.0664,0.0218,0.140
4.9560,0.1226,-0.1228,-0.4078,0.443
4.9610,-0.1155,-0.0174,0.0654,0.134
4.9660,-0.0791,0.0231,0.0198,0.085
4.9730,-0.0145,-0.0222,0.1121,0.115
4.9770,0.0949,-0.0601,-0.2685,0.291
4.9840,-0.0625,-0.0003,-0.0456,0.077
4.9870,0.0258,0.0046,0.0474,0.054
4.9910,0.0729,-0.0311,0.0422,0.090
4.9960,0.0866,-0.0356,-0.2785,0.294
5.0010,-0.0017,0.0834,0.0228,0.087
5.0150,0.0148,0.0780,0.0227,0.083
5.0150,0.0454,-0.0698,0.0201,0.086
5.0160,0.0428,-0.1190,-0.1936,0.231
5.0240,0.0117,0.0268,-0.0734,0.079
5.0340,0.0733,0.0456,0.0625,0.107
5.0350,0.0939,0.0214,-0.0567,0.112
5.0380,0.0932,-0.0548,-0.0989,0.147
5.0420,0.0521,0.1284,-0.0554,0.149
5.0450,0.0374,0.0917,-0.0146,0.100
5.0500,0.0584,-0.0443,0.0045,0.073
5.0560,0.0509,-0.0629,-0.0169,0.083
5.0650,0.0885,0.0704,-0.1377,0.178
5.0650,0.0641,0.1244,0.0888,0.166
5.0730,0.0801,-0.0190,0.0430,0.093
5.0770,-0.0180,-0.0782,0.0972,0.126
5.0800,-0.0058,0.0886,-0.0910,0.127
5.0840,-0.0390,0.1378,0.1233,0.189
5.0890,0.0871,-0.0104,0.1009,0.134
5.0940,0.0626,-0.0601,0.0502,0.100
5.0990,0.0362,-0.0028,-0.1661,0.170
5.1050,-0.0542,0.0566,0.1936,0.209
5.1090,0.0148,-0.0317,0.2228,0.226
5.1130,-0.0281,-0.0314,0.0620,0.075
5.1180,0.0341,0.0282,-0.1474,0.154
5.1230,0.0054,0.0874,0.0674,0.110
5.1290,0.0858,-0.0462,0.1546,0.183
5.1330,-0.0264,-0.0151,0.0157,0.034
5.1430,-0.0995,0.0159,-0.2668,0.285
5.1450,-0.2054,0.0656,0.2409,0.323
5.1500,0.0311,-0.0820,0.1440,0.169
5.1550,-0.0570,-0.0125,-0.0067,0.059
5.1630,-0.0253,-0.0219,-0.2558,0.258
5.1640,-0.1747,0.0566,0.1663,0.248
5.1680,0.0687,-0.0673,0.1151,0.150
5.1750,-0.0031,0.0092,-0.0140,0.017
5.1780,0.0232,0.0021,-0.2773,0.278
5.1830,-0.1336,0.1065,0.1877,0.254
5.1880,0.0500,-0.0699,0.0153,0.087
5.1930,-0.1023,-0.0598,0.0033,0.119
5.1970,-0.0277,-0.0901,-0.2221,0.241
5.2020,-0.2435,0.0673,0.2330,0.344
5.2080,0.0029,0.0027,-0.0158,0.016
5.2120,-0.0043,0.0051,0.0627,0.063
5.2170,-0.0136,-0.1326,-0.2819,0.312
5.2230,-0.2483,-0.0080,0.1357,0.283
5.2270,-0.0824,-0.0625,-0.0719,0.126
5.2320,-0.1530,-0.0739,0.0901,0.192
5.2370,0.0690,-0.0331,-0.2785,0.289
5.2420,-0.1688,0.0050,0.0489,0.176
5.2460,0.0296,-0.0140,0.0082,0.034
5.2510,-0.0752,-0.0756,0.0959,0.143
5.2580,0.0276,-0.0726,-0.2134,0.227
5.2620,-0.1719,0.0467,0.0447,0.184
5.2670,0.0668,0.0749,-0.0601,0.117
5.2730,0.0780,-0.0159,0.0211,0.082
5.2760,0.0988,-0.0656,-0.2638,0.289
5.2860,-0.1487,0.0490,-0.0338,0.160
5.2870,-0.0999,-0.0012,-0.0644,0.119
5.2950,-0.0233,-0.0414,0.1117,0.121
5.2990,0.0646,-0.1171,-0.1550,0.205
5.3010,-0.0995,0.0191,-0.0469,0.112
5.3060,-0.0417,0.1068,0.0081,0.115
5.3100,0.0962,-0.0009,0.0721,0.120
5.3150,0.0764,-0.0864,-0.1468,0.187
5.3200,0.0498,0.0022,-0.0744,0.090
5.3270,-0.0312,0.0995,0.0520,0.117
5.3300,0.0260,0.0727,0.0800,0.111
5.3350,0.0330,-0.0372,-0.1010,0.113
5.3400,0.0092,0.0390,-0.0480,0.063
5.3450,-0.0100,0.1289,0.0877,0.156
5.3490,0.0801,0.0163,0.0134,0.083
5.3620,-0.0202,-0.0789,-0.0223,0.084
5.3630,-0.0365,0.0381,-0.0719,0.089
5.3660,-0.0432,0.1303,0.0663,0.152
5.3700,0.0971,0.0486,0.0539,0.121
5.3760,0.0867,-0.1037,-0.0344,0.139
5.3790,0.1052,-0.0791,-0.1029,0.167
5.3840,-0.0262,0.0901,0.0901,0.130
5.3900,0.0712,0.0229,0.0111,0.076
5.3940,-0.0337,0.0607,-0.0056,0.070
5.3990,0.0855,0.0389,-0.0910,0.131
5.4030,0.0301,0.0195,0.0142,0.039
5.4090,0.1579,-0.0638,0.0520,0.178
5.4140,0.0450,-0.0254,0.0089,0.052
5.4180,-0.0074,0.0792,-0.1597,0.178
5.4240,-0.1425,0.1355,-0.0041,0.197
5.4280,0.0103,-0.0579,0.0980,0.114
5.4330,0.0503,-0.0764,0.0402,0.100
5.4430,0.0169,-0.0070,-0.1761,0.177
5.4450,-0.2134,0.0737,0.1813,0.290
5.4500,-0.0979,-0.1262,0.2534,0.299
5.4560,-0.0071,-0.1322,0.1848,0.227
5.4580,0.1047,-0.0315,-0.1655,0.198
5.4630,-0.0196,0.1325,0.1467,0.199
5.4680,0.0587,0.0150,0.1431,0.155
5.4760,-0.0130,-0.0255,0.1324,0.135
5.4780,0.0395,-0.0111,-0.2341,0.238
5.4830,-0.0747,0.1432,0.0668,0.175
5.4880,0.0965,-0.0407,0.0497,0.116
5.4930,-0.0206,-0.0711,0.1204,0.141
5.5020,0.0462,-0.1086,-0.2246,0.254
5.5030,-0.1629,0.0892,0.0667,0.197
5.5090,-0.0026,0.0458,-0.0786,0.091
5.5130,-0.0430,-0.0234,0.1309,0.140
5.5170,0.0760,-0.0896,-0.2831,0.307
5.5220,-0.1856,0.0178,0.1061,0.215
5.5270,-0.0251,0.0153,-0.0230,0.037
5.5310,-0.0701,-0.0132,0.0603,0.093
5.5360,0.0990,-0.1033,-0.2677,0.304
5.5420,-0.0845,-0.0005,0.0454,0.096
5.5460,0.0489,-0.0385,0.0260,0.067
5.5510,-0.0680,-0.0762,0.0685,0.123
5.5600,0.0229,-0.0780,-0.2002,0.216
5.5610,-0.1909,0.0153,-0.0324,0.194
5.5670,0.0670,0.0580,-0.0393,0.097
5.5710,0.0165,-0.0112,0.0797,0.082
5.5770,0.0805,-0.0396,-0.0681,0.113
5.5810,-0.1598,0.0319,-0.0461,0.169
5.5850,-0.0469,0.0411,-0.0197,0.065
5.5910,0.0221,-0.0423,0.0327,0.058
5.5950,0.0290,-0.1463,-0.0672,0.164
5.6000,-0.1111,0.0281,0.0045,0.115
5.6060,-0.1007,0.1300,-0.0477,0.171
5.6100,-0.0144,0.0626,0.1283,0.143
5.6150,0.0308,-0.1420,-0.0579,0.156
5.6200,-0.0193,-0.0176,-0.1238,0.127
5.6260,0.0590,0.1226,0.0646,0.151
5.6300,0.0750,0.1287,0.0855,0.172
5.6360,0.0151,0.0018,0.0326,0.036
5.6400,-0.0726,-0.0362,-0.0935,0.124
5.6450,-0.0673,0.0447,0.0781,0.112
5.6490,0.1799,0.0252,0.0704,0.195
5.6550,0.0764,0.0415,0.0366,0.094
5.6600,0.0309,0.0934,-0.0871,0.131
5.6640,-0.0880,0.0807,0.0987,0.155
5.6690,0.0975,-0.0671,0.0884,0.148
5.6810,0.0276,-0.0690,-0.0310,0.081
5.6840,0.0203,0.0668,0.0048,0.070
5.6950,-0.1318,0.1659,-0.0023,0.212
5.6950,0.0685,0.0554,0.0570,0.105
5.6970,0.0892,-0.0257,0.0067,0.093
5.7020,0.0839,0.0695,-0.0883,0.140
5.7040,-0.0070,0.1614,0.0145,0.162
5.7090,0.0001,0.0010,0.1852,0.185
5.7140,-0.0665,-0.1176,-0.0156,0.136
5.7190,0.0861,-0.1119,-0.1816,0.230
5.7240,0.0356,0.1287,0.1260,0.184
5.7280,0.1869,0.0802,0.0704,0.215
5.7330,0.0192,0.0179,0.0342,0.043
5.7380,0.0903,-0.0273,-0.1820,0.205
5.7430,-0.0766,0.0440,0.1019,0.135
5.7470,0.0971,-0.1035,0.0180,0.143
5.7520,0.0013,-0.0315,0.0605,0.068
5.7580,0.0822,0.0162,-0.2508,0.264
5.7620,-0.1557,0.0729,0.0859,0.192
5.7680,0.0947,-0.0819,0.0567,0.137
5.7770,0.1056,-0.0693,0.0491,0.135
5.7780,0.1191,-0.0498,-0.2645,0.294
5.7820,-0.1380,0.1144,0.0532,0.187
5.7870,0.0150,0.0424,0.1026,0.112
5.7930,0.0670,0.0349,0.0875,0.116
5.7980,0.1022,-0.1410,-0.2691,0.321
5.8020,-0.0457,-0.0401,0.0226,0.065
5.8090,0.0069,-0.0634,0.1173,0.134
5.8130,-0.0360,0.0083,0.0808,0.089
5.8170,0.0357,0.0438,-0.2474,0.254
5.8220,-0.1425,0.0696,0.1130,0.195
5.8280,0.0295,-0.0401,0.0314,0.059
5.8320,0.0505,-0.0919,0.0976,0.143
5.8370,0.0929,-0.0485,-0.2687,0.288
5.8440,-0.1260,0.0564,0.0800,0.160
5.8460,0.0174,0.0750,0.0556,0.095
5.8510,0.0621,-0.0300,0.0575,0.090
5.8610,0.0831,-0.0772,-0.1328,0.175
5.8620,-0.0836,0.0444,-0.0676,0.116
5.8680,-0.0711,0.0154,-0.0172,0.075
5.8710,0.0648,-0.0037,0.1443,0.158
5.8770,0.0264,-0.0346,-0.2010,0.206
5.8810,-0.0426,0.0511,-0.0688,0.096
5.8860,0.0574,0.1100,0.0813,0.148
5.8940,0.0780,-0.0783,-0.0120,0.111
5.8960,-0.0056,-0.1039,-0.0308,0.108
5.9010,-0.0624,0.0133,-0.1303,0.145
5.9120,-0.1448,0.0464,-0.0034,0.152
5.9130,0.0011,-0.0535,0.1366,0.147
5.9170,0.0510,-0.0887,-0.0401,0.110
5.9220,0.0627,0.0426,-0.1110,0.134
5.9310,-0.0801,0.1253,0.0608,0.161
5.9320,-0.0225,-0.0418,0.0817,0.094
5.9350,-0.0530,-0.0985,-0.0139,0.113
5.9420,-0.0714,0.0281,-0.1135,0.137
5.9450,-0.1419,0.1371,0.0180,0.198
5.9510,-0.1075,-0.0088,0.1768,0.207
5.9550,-0.0782,-0.0847,-0.0501,0.126
5.9600,-0.0155,0.0228,-0.1897,0.192
5.9650,-0.0058,0.1270,0.0729,0.147
5.9690,0.0200,-0.0046,0.0913,0.094
5.9760,-0.0584,-0.0900,-0.0613,0.124
5.9820,-0.0814,-0.0063,-0.2056,0.221
5.9840,-0.0452,0.0530,0.0809,0.107
5.9960,0.0903,-0.0306,0.0874,0.129
5.9970,0.0040,-0.0542,-0.0463,0.071
5.9990,0.0160,0.0387,-0.1764,0.181
6.0030,-0.0862,0.1025,0.0387,0.139
6.0090,0.0993,-0.0763,0.0953,0.157
6.0130,0.0983,-0.1184,0.0138,0.155
6.0180,0.0739,-0.0178,-0.1619,0.179
6.0230,-0.0929,0.1010,0.0815,0.160
6.0280,0.0382,-0.0186,0.0428,0.060
6.0330,-0.0097,-0.0754,-0.0358,0.084
6.0380,0.0971,-0.0938,-0.1874,0.231
6.0430,0.0061,0.0849,0.0752,0.114
6.0470,0.0961,0.0130,0.0864,0.130
6.0520,-0.0092,0.0010,0.0430,0.044
6.0600,0.0029,-0.0489,-0.2326,0.238
6.0620,-0.1088,-0.0580,0.0185,0.125
6.0680,0.0961,-0.0481,0.0397,0.115
6.0720,0.1093,0.0424,0.1627,0.201
6.0770,0.1347,0.0514,-0.2017,0.248
6.0820,-0.1130,0.0486,-0.0505,0.133
6.0870,0.0540,-0.1227,0.1018,0.168
6.0930,0.0842,-0.0813,0.1863,0.220
6.0970,0.1072,-0.1044,-0.2898,0.326
6.1010,-0.1142,0.0176,-0.0572,0.129
6.1080,-0.0350,0.0151,0.1117,0.118
6.1120,0.0388,0.0269,0.1393,0.147
6.1160,0.0932,-0.0611,-0.2961,0.316
6.1220,-0.0285,0.0367,0.0908,0.102
6.1280,0.0665,-0.0038,0.1090,0.128
6.1310,0.0636,0.0343,0.1199,0.140
6.1370,0.0609,-0.0490,-0.2631,0.274
6.1430,-0.1174,0.0416,0.0784,0.147
6.1480,0.0709,0.0650,0.1324,0.164
6.1510,0.1009,0.0573,0.0648,0.133
6.1560,0.0812,-0.0191,-0.2157,0.231
6.1620,-0.1660,0.0073,0.0376,0.170
6.1660,-0.0982,0.0191,0.0515,0.113
6.1710,-0.0216,-0.0806,0.0155,0.085
6.1820,-0.0022,-0.1061,-0.2219,0.246
6.1820,-0.0590,0.0088,0.0315,0.067
6.1890,-0.0136,0.0468,-0.0210,0.053
6.1900,0.0173,-0.0556,0.0432,0.073
6.1960,-0.0493,-0.0955,-0.1280,0.167
6.2020,-0.0726,0.0809,0.0107,0.109
6.2050,0.0751,0.0754,-0.0487,0.117
6.2100,0.0861,0.0013,0.0941,0.128
6.2150,-0.0521,-0.0438,-0.1084,0.128
6.2200,-0.1510,0.0562,-0.0648,0.174
6.2270,-0.0953,-0.0510,0.0402,0.115
6.2290,0.0120,-0.0412,0.0375,0.057
6.2340,-0.0639,-0.1287,-0.0222,0.145
6.2390,-0.0870,0.0716,-0.0600,0.128
6.2440,-0.1410,0.0780,0.1019,0.191
6.2490,0.0618,0.0466,0.0346,0.085
6.2540,0.0707,0.0486,0.0130,0.087
6.2650,0.0369,0.0671,-0.1034,0.129
6.2660,-0.0892,0.0310,0.0968,0.135
6.2700,0.0965,-0.0785,-0.0108,0.125
6.2740,-0.0016,-0.0780,0.0462,0.091
6.2790,0.0911,-0.0299,-0.0633,0.115
6.2840,-0.0401,0.0178,-0.0224,0.049
6.2890,0.1618,-0.0394,-0.0223,0.168
6.2940,0.0772,-0.0011,0.1606,0.178
6.2980,0.1266,0.0818,-0.2156,0.263
6.3030,-0.1402,0.1641,-0.0620,0.225
6.3100,0.0721,-0.0414,0.2186,0.234
6.3130,0.0380,-0.1501,0.0815,0.175
6.3180,0.1044,-0.0897,-0.2633,0.297
6.3220,-0.0291,0.0913,-0.0333,0.101
6.3280,0.0777,-0.0116,0.1592,0.178
6.3330,0.0342,0.0384,0.0843,0.099
6.3380,0.0792,0.0499,-0.1940,0.215
6.3430,0.0075,0.1633,-0.0476,0.170
6.3470,0.0903,-0.0539,0.1639,0.195
6.3520,0.0894,-0.1271,0.0012,0.155
6.3580,0.0888,-0.1262,-0.3429,0.376
6.3630,-0.1443,0.0907,0.0278,0.173
6.3680,-0.0483,0.0448,0.0821,0.105
6.3720,0.0255,0.0421,0.0530,0.072
6.3830,0.0870,-0.0343,-0.2939,0.308
6.3840,-0.0964,-0.0174,0.1309,0.163
6.3900,0.0208,-0.0149,0.0776,0.082
6.3990,0.0300,-0.0076,-0.0013,0.031
6.4000,0.0891,-0.0668,-0.2315,0.257
6.4020,-0.0184,0.0336,0.1738,0.178
6.4070,0.0860,0.0142,0.0276,0.091
6.4120,0.0663,0.0900,0.0488,0.122
6.4160,0.0278,-0.1053,-0.2008,0.228
6.4210,-0.1314,-0.0261,0.0595,0.147
6.4260,0.0192,-0.0022,0.0875,0.090
6.4310,0.0877,-0.0258,0.0939,0.131
6.4360,0.0869,-0.0423,-0.2130,0.234
6.4400,-0.1083,0.0720,0.0237,0.132
6.4460,-0.0837,0.1071,-0.0002,0.136
6.4510,-0.0263,0.0279,0.0377,0.054
6.4560,0.0878,-0.1005,-0.0812,0.156
6.4630,0.0777,-0.0711,-0.0734,0.128
6.4670,0.0841,0.0909,0.0577,0.137
6.4710,0.0191,-0.0119,0.0430,0.049
6.4780,-0.0331,-0.0522,-0.1282,0.142
6.4870,-0.0470,0.0740,-0.0607,0.107
6.4870,0.0481,0.0947,0.0608,0.122
6.4900,0.0831,-0.0271,0.0152,0.089
6.4960,0.0114,-0.1264,0.0246,0.129
6.5000,-0.1073,0.0099,-0.0587,0.123
6.5050,-0.0423,0.0928,0.0154,0.103
6.5100,0.0859,0.0090,0.0651,0.108
6.5150,0.0708,-0.0932,0.0882,0.147
6.5190,0.0515,0.0856,-0.0691,0.121
6.5240,-0.0389,0.1632,0.0644,0.180
6.5290,0.0753,0.0006,0.0187,0.078
6.5340,0.0365,-0.1490,-0.0146,0.154
6.5390,0.0839,-0.0481,-0.1450,0.174
6.5450,-0.0139,0.1280,0.0460,0.137
6.5490,0.0218,0.0272,0.0124,0.037
6.5540,-0.0613,-0.0370,-0.0138,0.073
6.5590,0.0816,-0.0794,-0.2177,0.246
6.5640,0.0049,0.0376,0.0570,0.068
6.5720,0.0808,-0.0196,0.0992,0.129
6.5760,-0.0551,0.0611,-0.0535,0.098
6.5790,0.0452,-0.0107,-0.2310,0.236
6.5860,0.0091,-0.0179,0.0580,0.061
6.5890,0.0896,-0.0936,0.0979,0.162
6.5950,0.0034,0.0092,0.0899,0.090
6.5980,0.0488,0.0162,-0.1671,0.175
6.6030,-0.0868,0.0090,0.0004,0.087
6.6080,0.0846,-0.1002,0.1096,0.171
6.6170,0.0813,-0.0165,0.0541,0.099
6.6180,0.0808,-0.0236,-0.1884,0.206
6.6220,-0.1096,0.1142,-0.0018,0.158
6.6290,0.0074,-0.0148,0.1027,0.104
6.6330,0.0476,-0.0147,0.0472,0.069
6.6370,0.0686,-0.0834,-0.1904,0.219
6.6420,-0.0979,-0.0044,0.1054,0.144
6.6470,-0.0141,-0.0353,0.1258,0.131
6.6520,0.0619,0.0051,0.0679,0.092
6.6570,0.0875,-0.0401,-0.3124,0.327
6.6670,-0.0365,0.0717,0.0865,0.118
6.6700,-0.0150,0.0117,0.2756,0.276
6.6750,0.0206,0.0257,0.0194,0.038
6.6790,0.0799,-0.1003,-0.3794,0.400
6.6820,-0.0964,0.0168,0.1078,0.146
6.6870,-0.0151,-0.0072,0.0286,0.033
6.6910,-0.0032,0.0497,0.1186,0.129
6.7010,0.0444,-0.0078,-0.3594,0.362
6.7030,-0.1077,0.0136,0.0968,0.146
6.7070,0.0662,-0.0364,0.1601,0.177
6.7140,0.0607,-0.0883,0.0188,0.109
6.7170,0.0320,-0.0569,-0.2163,0.226
6.7210,-0.1557,0.0765,0.0774,0.190
6.7260,-0.0668,0.0615,0.1574,0.182
6.7320,0.0142,0.0516,0.0588,0.079
6.7370,0.0852,-0.0485,-0.2525,0.271
6.7460,0.0252,0.0255,0.0035,0.036
6.7470,0.0012,0.0370,0.1221,0.128
6.7510,-0.0202,0.0367,0.0855,0.095
6.7550,-0.0507,0.0031,-0.2095,0.216
6.7670,-0.1381,-0.0277,-0.0488,0.149
6.7680,-0.0017,-0.0084,0.2316,0.232
6.7730,0.0338,-0.0628,0.0636,0.096
6.7780,0.0003,0.0065,-0.0271,0.028
6.7820,-0.1324,0.1322,-0.0458,0.193
6.7850,-0.1908,0.1548,0.1349,0.280
6.7900,-0.0422,-0.1289,0.0816,0.158
6.7950,-0.0323,-0.0710,-0.0544,0.095
6.8000,0.0371,0.0529,-0.0183,0.067
6.8050,0.0629,0.1450,-0.0087,0.158
6.8100,0.0718,-0.0507,0.0816,0.120
6.8160,0.0260,-0.0431,0.0049,0.051
6.8200,-0.0381,-0.0001,-0.0758,0.085
6.8240,-0.0638,0.0854,0.1052,0.150
6.8300,0.1027,0.0089,0.0711,0.125
6.8350,-0.0074,-0.0482,-0.0505,0.070
6.8390,0.0688,-0.0263,-0.1142,0.136
6.8450,-0.1191,0.0617,0.1193,0.180
6.8510,-0.0495,-0.0027,0.0614,0.079
6.8540,-0.1178,-0.0239,0.1131,0.165
6.8590,-0.0811,0.0190,-0.1299,0.154
6.8650,-0.1278,0.1423,0.0492,0.197
6.8690,0.0820,-0.0416,0.0060,0.092
6.8740,-0.0066,-0.0649,0.2409,0.250
6.8810,0.0767,-0.0003,-0.2784,0.289
6.8860,-0.1420,0.0756,-0.0554,0.170
6.8880,0.0867,-0.0506,0.0732,0.124
6.8930,0.0336,-0.0169,0.0726,0.082
6.8990,0.0550,-0.0428,-0.3622,0.369
6.9030,-0.1281,0.0430,0.0798,0.157
6.9080,0.0792,-0.1494,0.0150,0.170
6.9150,-0.0285,-0.0532,-0.0183,0.063
6.9180,0.0740,-0.0101,-0.2910,0.300
6.9230,-0.1592,-0.0052,0.1646,0.229
6.9290,0.0698,-0.1308,0.1181,0.190
6.9330,-0.0612,0.0127,-0.0632,0.089
6.9380,0.0036,-0.0302,-0.2501,0.252
6.9420,-0.0726,0.0341,0.2360,0.249
6.9470,0.0726,-0.0682,0.0466,0.110
6.9520,0.0461,0.0583,0.0391,0.084
6.9570,-0.0563,-0.0465,-0.2104,0.223
6.9650,-0.0890,-0.0176,0.2375,0.254
6.9670,0.1014,0.0063,0.0528,0.115
6.9760,0.0887,0.0465,-0.0473,0.111
6.9770,0.0857,-0.0703,-0.2249,0.251
6.9840,-0.0431,-0.0484,0.1187,0.135
6.9870,-0.0072,-0.0456,-0.0104,0.047
6.9910,0.0047,0.0046,0.0869,0.087
7.0000,-0.0072,-0.0265,-0.2270,0.229
7.0020,-0.1779,-0.0025,0.1284,0.219
7.0060,-0.0056,0.0449,-0.0079,0.046
7.0120,0.0512,-0.0172,0.0942,0.109
7.0160,0.0841,-0.0504,-0.2672,0.285
7.0210,-0.1443,0.0164,0.0268,0.148
7.0260,0.0324,0.0661,-0.0019,0.074
7.0320,0.0818,0.0015,0.0883,0.120
7.0350,0.0645,-0.0129,-0.2090,0.219
7.0410,-0.0641,0.0251,-0.0056,0.069
7.0460,0.0004,0.0509,0.1060,0.118
7.0500,0.0833,-0.0516,0.0221,0.100
7.0550,0.0116,-0.0656,-0.2107,0.221
7.0600,-0.1095,0.0487,0.0877,0.148
7.0700,-0.0304,0.1076,0.0466,0.121
7.0700,0.0835,-0.0475,0.0035,0.096
7.0750,0.0330,-0.0424,-0.0891,0.104
7.0800,-0.0265,0.0647,0.0280,0.075
7.0850,-0.0288,0.1447,0.0799,0.168
7.0900,0.0852,-0.0179,0.0294,0.092
7.0960,0.0109,-0.0700,-0.0847,0.110
7.1000,0.0631,0.0777,0.0275,0.104
7.1050,-0.0158,0.1624,0.1080,0.196
7.1090,0.0531,0.0235,-0.0495,0.076
7.1150,0.0100,-0.0764,-0.0373,0.086
7.1190,0.0692,-0.0520,-0.0892,0.124
7.1240,-0.0667,0.0314,0.1180,0.139
7.1300,-0.0542,0.0098,0.0387,0.067
7.1350,-0.1488,0.0738,0.0550,0.175
7.1390,-0.0621,0.0328,-0.1234,0.142
7.1450,-0.0166,0.0231,0.0437,0.052
7.1490,0.0712,-0.1241,0.0244,0.145
7.1550,-0.0148,-0.0044,0.0408,0.044
7.1600,-0.0832,0.0882,-0.0687,0.139
7.1650,-0.1702,0.1349,0.1193,0.248
7.1690,0.0637,-0.0559,0.1278,0.153
7.1740,0.0868,-0.0910,0.1102,0.167
7.1830,0.0862,-0.0286,-0.0877,0.126
7.1840,-0.1231,0.1164,0.1479,0.225
7.1890,0.0630,-0.0339,0.1182,0.138
7.1930,-0.0040,-0.0288,-0.0180,0.034
7.1980,0.0627,-0.0357,-0.1697,0.184
7.2030,-0.0802,0.0737,0.1164,0.159
7.2080,0.0391,-0.0741,0.0134,0.085
7.2150,-0.0348,-0.0451,0.0964,0.112
7.2190,-0.0224,-0.0352,-0.2912,0.294
7.2220,-0.2500,0.0600,0.0695,0.266
7.2270,0.0865,-0.0781,0.1188,0.166
7.2330,0.0572,-0.1013,0.0039,0.116
7.2380,-0.0142,-0.1478,-0.2738,0.311
7.2430,-0.1942,0.0291,0.0061,0.196
7.2470,-0.0148,-0.0921,0.0037,0.093
7.2520,0.0398,-0.0130,0.1484,0.154
7.2570,0.0753,-0.0771,-0.3037,0.322
7.2620,-0.1030,0.0161,0.0524,0.117
7.2710,0.0330,-0.1334,0.0235,0.139
7.2720,-0.0457,-0.0421,0.0447,0.077
7.2800,0.0167,-0.0727,-0.2665,0.277
7.3020,0.0023,-0.0057,0.0797,0.080
7.3030,0.0900,-0.0507,0.0909,0.138
7.3030,0.0964,0.0043,0.0451,0.107
7.3030,0.0673,-0.0717,-0.2590,0.277
7.3040,-0.0685,-0.0308,0.1727,0.188
7.3080,-0.0277,-0.0211,0.0502,0.061
7.3110,-0.0322,-0.0187,0.0213,0.043
7.3220,0.0157,-0.0115,-0.1711,0.172
7.3230,-0.0651,0.0195,0.1341,0.150
7.3260,-0.0291,-0.0164,0.0333,0.047
7.3320,0.0352,-0.0591,0.0022,0.069
7.3360,-0.0102,-0.0468,-0.0904,0.102
7.3400,-0.0979,0.0462,0.0551,0.121
7.3450,0.0049,0.1217,-0.0189,0.123
7.3500,0.0072,0.0020,0.0928,0.093
7.3560,-0.0166,-0.0432,-0.0314,0.056
7.3600,-0.1158,0.0164,-0.0691,0.136
7.3680,-0.0081,0.1183,0.0145,0.119
7.3700,0.0890,-0.0108,0.1141,0.145
7.3750,0.0622,-0.0630,-0.0435,0.099
7.3800,-0.0829,0.0088,-0.1001,0.130
7.3850,-0.0656,0.1035,0.0313,0.126
7.3900,0.0652,0.0244,-0.0449,0.083
7.3940,-0.0042,-0.0469,-0.0042,0.047
7.4000,0.0647,0.0270,-0.1394,0.156
7.4040,-0.0711,0.1075,0.1394,0.190
7.4090,0.0432,0.0260,0.0979,0.110
7.4170,-0.0355,-0.0716,-0.0050,0.080
7.4200,0.0362,-0.0046,-0.1497,0.154
7.4240,0.0049,0.0809,0.0865,0.119
7.4290,0.0924,-0.0503,0.0359,0.111
7.4340,-0.0198,0.0023,-0.0166,0.026
7.4390,-0.0573,0.0213,-0.1968,0.206
7.4430,-0.1922,0.0543,0.1110,0.228
7.4490,0.0229,-0.0766,0.1124,0.138
7.4530,-0.0154,-0.0524,0.0759,0.093
7.4590,0.0726,0.0050,-0.1929,0.206
7.4650,-0.0656,0.0287,0.0579,0.092
7.4690,0.0913,-0.0688,0.0289,0.118
7.4730,0.0689,-0.0018,0.0999,0.121
7.4780,0.0898,0.0076,-0.1145,0.146
7.4870,-0.0652,0.0645,0.1071,0.141
7.5030,0.0611,-0.0713,0.0872,0.128
7.5030,0.0177,-0.1158,0.1150,0.164
7.5030,0.0699,-0.0698,-0.2206,0.242
7.5040,-0.0587,0.1657,0.0660,0.188
7.5080,0.0888,0.0480,0.0631,0.119
7.5130,0.0261,-0.0022,0.0744,0.079
7.5180,0.0760,-0.1185,-0.1587,0.212
7.5250,-0.0811,0.0058,0.0372,0.089
7.5270,0.0880,-0.0276,0.0701,0.116
7.5330,0.0681,0.0533,0.1407,0.165
7.5370,0.0391,-0.0350,-0.1002,0.113
7.5420,-0.1011,0.1054,0.0976,0.176
7.5480,0.0873,0.0167,0.0422,0.098
7.5520,0.0863,-0.0427,-0.0032,0.096
7.5560,0.0761,-0.0686,-0.2144,0.238
7.5610,-0.1332,0.0602,0.1861,0.237
7.5670,0.0411,0.0549,0.1228,0.141
7.5710,0.0548,0.0284,0.1052,0.122
7.5780,0.0307,-0.0408,-0.2137,0.220
7.5900,-0.2091,0.0308,-0.0054,0.211
7.5910,-0.1125,0.0449,0.0516,0.132
7.6080,0.0568,-0.0101,0.0796,0.098
7.6090,0.0873,-0.0647,-0.2295,0.254
7.6090,-0.0651,-0.0049,-0.0046,0.065
7.6100,-0.0551,0.0427,0.1378,0.154
7.6110,0.0639,0.0280,0.1177,0.137
7.6170,0.0372,-0.0815,-0.1894,0.209
7.6230,-0.0840,-0.0119,0.0353,0.092
7.6260,-0.0336,0.0072,0.1085,0.114
7.6310,0.0354,-0.0189,0.1314,0.137
7.6360,0.0353,-0.0568,-0.1308,0.147
7.6410,-0.0408,0.0387,0.0602,0.082
7.6450,0.0117,0.1048,0.1427,0.177
7.6510,0.0779,0.0471,0.1059,0.140
7.6550,-0.0460,-0.1337,-0.1061,0.177
7.6600,-0.1144,-0.0210,-0.0459,0.125
7.6660,-0.0921,0.1025,0.0731,0.156
7.6700,0.0414,0.0685,0.0274,0.085
7.6750,-0.0205,-0.0602,-0.0322,0.071
7.6800,-0.0344,-0.0075,-0.0699,0.078
7.6870,-0.0579,0.0329,0.0518,0.084
7.6920,-0.0646,-0.0315,0.1154,0.136
7.6940,-0.1068,-0.0194,-0.0825,0.136
7.7000,0.0153,0.0686,-0.0676,0.097
7.7040,-0.0135,0.0775,0.0801,0.112
7.7090,0.0364,-0.0821,0.0272,0.094
7.7140,-0.0779,-0.0483,-0.0371,0.099
7.7200,-0.0962,0.0233,-0.1269,0.161
7.7240,-0.1334,0.1489,0.0473,0.205
7.7290,0.0052,-0.0469,0.0944,0.106
7.7340,-0.0446,-0.1106,-0.0179,0.121
7.7390,0.0556,-0.0290,-0.1601,0.172
7.7430,-0.0920,0.0400,0.0453,0.110
7.7500,0.0510,-0.0814,0.0330,0.102
7.7540,-0.0421,-0.0380,0.0873,0.104
7.7590,0.0771,0.0784,-0.1649,0.198
7.7630,-0.0873,0.1369,0.0097,0.163
7.7700,0.0961,-0.0944,0.1069,0.172
7.7730,-0.0116,-0.1150,0.0348,0.121
7.7790,0.0764,-0.0453,-0.2431,0.259
7.7880,-0.1069,0.0997,-0.0465,0.153
7.7890,-0.0017,0.0206,0.1034,0.105
7.7960,-0.0446,0.0038,0.0764,0.089
7.8040,0.0435,-0.0747,-0.2161,0.233
7.8050,-0.0328,0.0636,0.0396,0.082
7.8090,0.0267,-0.1078,0.1081,0.155
7.8130,0.0311,-0.0453,0.1190,0.131
7.8190,0.0902,-0.0783,-0.2687,0.294
7.8230,-0.0079,0.0316,-0.0079,0.034
7.8280,0.0371,-0.0423,0.1037,0.118
7.8340,0.0200,-0.0040,0.1385,0.140
7.8380,0.0294,0.0315,-0.2566,0.260
7.8420,-0.0895,0.0786,0.0469,0.128
7.8470,0.0227,-0.0431,0.1296,0.138
7.8520,0.0936,-0.0166,0.1902,0.213
7.8560,0.0951,-0.0096,-0.2907,0.306
7.8610,-0.0669,0.0712,0.0439,0.107
7.8670,0.0545,0.0254,0.1337,0.147
7.8710,0.1038,-0.0200,0.1207,0.160
7.8760,0.0887,-0.0721,-0.2576,0.282
7.8810,-0.0923,0.0114,0.0151,0.094
7.8860,-0.0772,0.0160,0.1027,0.130
7.8910,0.0633,0.0348,0.1849,0.199
7.8970,0.0629,-0.0225,-0.2437,0.253
7.9020,-0.0466,0.0062,-0.0542,0.072
7.9060,0.0439,0.0133,0.0459,0.065
7.9110,0.0695,0.0179,0.0882,0.114
7.9160,0.0217,-0.0083,-0.1166,0.119
7.9210,-0.0565,0.0987,-0.1109,0.159
7.9250,-0.0134,0.0884,0.1321,0.160
7.9300,0.0909,-0.0167,0.0906,0.129
7.9350,0.0523,-0.0355,-0.1379,0.152
7.9400,-0.0712,0.0788,-0.0513,0.118
7.9450,-0.0492,0.0829,0.0938,0.135
7.9510,0.0555,-0.0363,-0.0185,0.069
7.9620,0.0313,-0.1594,-0.1204,0.202
7.9620,-0.0209,0.0580,-0.0624,0.088
7.9650,-0.0586,0.1691,0.1161,0.213
7.9710,-0.0083,0.0421,-0.0130,0.045
7.9770,-0.0462,-0.1931,-0.0556,0.206
7.9800,-0.0148,-0.1701,-0.0623,0.182
7.9890,-0.0764,0.0496,0.1399,0.167
7.9900,0.0405,0.0991,0.0937,0.142
7.9940,-0.0616,-0.0181,-0.0233,0.068
8.0020,-0.0300,-0.0251,-0.0801,0.089
8.0060,0.0247,0.0606,0.1531,0.166
8.0100,0.1169,-0.0277,0.1257,0.174
8.0140,0.0186,0.0200,0.0511,0.058
8.0190,-0.0620,0.0245,-0.1202,0.137
8.0240,-0.2038,0.0337,-0.0290,0.209
8.0280,0.0612,-0.0686,0.0401,0.100
8.0350,-0.0106,-0.0325,0.0160,0.038
8.0380,-0.0104,0.1291,-0.2404,0.273
8.0430,-0.1122,-0.0593,-0.0059,0.127
8.0480,0.0997,-0.0991,0.0867,0.165
8.0540,-0.0483,0.0156,0.0457,0.068
8.0580,-0.0760,0.0344,-0.2489,0.263
8.0630,-0.1086,-0.0418,-0.0096,0.117
8.0680,0.0558,-0.0438,0.0451,0.084
8.0730,-0.0254,-0.0269,-0.0099,0.038
8.0780,0.0723,0.0113,-0.1972,0.210
8.0840,0.0432,-0.0623,0.0536,0.093
8.0870,0.0996,-0.1425,0.0697,0.187
8.0940,0.0632,-0.1390,0.0929,0.179
8.0970,0.0106,-0.0335,-0.2662,0.269
8.1060,-0.0583,0.1683,0.0041,0.178
8.1070,0.0749,0.0197,0.1132,0.137
8.1120,0.0907,-0.0517,0.1289,0.166
8.1190,0.0140,0.0008,-0.1996,0.200
8.1220,-0.2161,0.0459,0.0180,0.222
8.1270,0.0180,-0.0020,0.0297,0.035
8.1320,0.0532,-0.1444,0.1386,0.207
8.1370,0.0909,-0.1219,-0.2304,0.276
8.1420,-0.0687,0.0831,0.0112,0.108
8.1470,0.0600,0.0965,0.0966,0.149
8.1520,0.0617,0.0410,0.0910,0.117
8.1580,0.0875,-0.0425,-0.2704,0.287
8.1610,-0.1269,-0.0091,0.0593,0.140
8.1690,-0.0595,-0.0209,0.1134,0.130
8.1720,-0.0330,-0.0327,0.1480,0.155
8.1770,0.0553,-0.0065,-0.2281,0.235
8.1820,-0.0566,0.0719,0.0538,0.106
8.1920,0.0908,0.0902,0.1577,0.203
8.1930,0.0900,0.0420,0.0140,0.100
8.1970,0.0681,-0.0083,-0.1403,0.156
8.2030,-0.0557,-0.0154,0.0246,0.063
8.2080,-0.1360,0.0394,0.0813,0.163
8.2130,-0.0401,0.0368,-0.0475,0.072
8.2160,-0.0064,0.0150,-0.1657,0.167
8.2210,-0.0134,0.0624,0.0302,0.071
8.2260,0.0127,0.0761,0.0750,0.108
8.2300,0.0505,0.0209,-0.0158,0.057
8.2350,-0.0282,-0.0315,-0.0322,0.053
8.2400,-0.0444,0.0400,-0.0130,0.061
8.2450,-0.0132,0.0847,0.0061,0.086
8.2500,0.0438,-0.0180,0.0749,0.089
8.2550,0.0126,-0.0344,0.0220,0.043
8.2600,-0.0158,0.0370,-0.0612,0.073
8.2640,-0.0678,0.1127,-0.0488,0.140
8.2710,0.0939,-0.0162,0.1960,0.218
8.2770,0.0742,0.0172,-0.0121,0.077
8.2810,0.0383,0.0290,-0.1971,0.203
8.2860,0.0049,0.1048,0.0300,0.109
8.2910,0.1186,-0.0195,0.1650,0.204
8.2940,0.0226,-0.0502,-0.0523,0.076
8.2990,0.0323,0.0403,-0.2844,0.289
8.3040,-0.1363,0.0495,0.1332,0.197
8.3080,0.0711,-0.0600,0.2199,0.239
8.3130,0.0658,-0.1188,-0.0928,0.164
8.3200,0.0703,-0.0680,-0.2747,0.292
8.3240,-0.0987,0.0797,0.1927,0.231
8.3280,0.0776,-0.0087,0.1958,0.211
8.3330,-0.0227,-0.0229,-0.0739,0.081
8.3420,0.0324,-0.0891,-0.2489,0.266
8.3440,-0.0817,0.0136,0.1542,0.175
8.3480,0.0896,-0.0695,0.1054,0.155
8.3540,0.0485,0.0355,-0.0971,0.114
8.3580,0.0365,-0.0335,-0.2529,0.258
8.3630,-0.1061,-0.0331,0.1407,0.179
8.3730,0.0869,-0.1135,0.0683,0.158
8.3730,0.0007,0.0203,-0.0556,0.059
8.3800,0.0364,0.0343,-0.2118,0.218
8.3830,-0.0492,0.0269,0.2242,0.231
8.3920,0.0365,-0.0967,0.0183,0.105
8.3930,-0.0610,-0.0272,-0.0056,0.067
8.3980,0.0131,-0.0601,-0.1669,0.178
8.4050,-0.0322,-0.0146,0.0742,0.082
8.4100,0.0465,-0.0192,-0.0404,0.064
8.4120,0.0011,-0.0357,0.0596,0.070
8.4170,-0.0084,-0.0925,-0.2707,0.286
8.4220,-0.0960,0.0009,0.1302,0.162
8.4270,0.0850,0.0365,0.1030,0.138
8.4310,0.0651,0.0099,0.0215,0.069
8.4370,0.0790,-0.0448,-0.1519,0.177
8.4410,-0.0237,-0.0041,0.1056,0.108
8.4500,0.0547,-0.0042,-0.0637,0.084
8.4520,0.0091,-0.0208,0.1432,0.145
8.4600,0.0282,0.0410,-0.1783,0.185
8.4610,-0.2046,0.0738,0.0818,0.232
8.4660,0.0319,-0.0099,0.0788,0.086
8.4710,0.0172,-0.1071,0.1066,0.152
8.4760,0.0978,-0.0304,-0.2313,0.253
8.4810,-0.0642,0.1027,0.0507,0.131
8.4880,0.0738,0.1256,0.0408,0.151
8.4930,0.0636,-0.0179,0.0594,0.089
8.4960,-0.0270,-0.0107,-0.0977,0.102
8.5010,-0.1950,0.1057,-0.0328,0.224
8.5070,-0.0225,0.1237,0.0932,0.156
8.5100,0.0795,-0.0388,-0.0001,0.088
8.5150,0.0835,-0.0742,-0.1164,0.161
8.5200,-0.1163,0.0402,-0.0442,0.131
8.5260,-0.0916,0.1537,0.0938,0.202
8.5300,0.0206,0.0408,-0.0019,0.046
8.5370,0.0395,-0.0783,-0.0731,0.114
8.5400,-0.0035,0.0007,-0.0416,0.042
8.5450,-0.0345,0.1216,-0.0033,0.126
8.5500,0.0299,0.0400,0.0252,0.056
8.5560,-0.0487,-0.0173,-0.0747,0.091
8.5590,-0.0267,0.0326,-0.0575,0.071
8.5640,0.0020,0.0656,0.0617,0.090
8.5730,0.0921,-0.0299,-0.0433,0.106
8.5760,-0.0748,-0.0559,-0.0049,0.093
8.5810,-0.0645,0.0586,-0.0571,0.104
8.5850,-0.1019,0.0700,0.0264,0.126
8.5910,0.0934,-0.0752,0.0974,0.154
8.5950,0.0831,-0.1054,0.0610,0.147
8.5990,0.0588,-0.0381,-0.1222,0.141
8.6040,-0.1314,0.1330,0.0900,0.208
8.6090,0.0807,0.0038,0.0014,0.081
8.6130,0.0111,-0.0579,0.0228,0.063
8.6190,0.0896,-0.0195,-0.1079,0.142
8.6240,-0.0083,0.1064,0.0591,0.122
8.6280,0.0607,-0.0629,0.0586,0.105
8.6330,-0.0988,-0.1075,0.0889,0.171
8.6400,0.0374,-0.0996,-0.1681,0.199
8.6430,-0.0958,0.0697,0.0564,0.131
8.6480,0.1209,0.0074,0.1579,0.199
8.6540,0.0581,0.0381,0.1305,0.148
8.6590,0.1029,0.0022,-0.1885,0.215
8.6630,-0.1351,0.0710,0.1405,0.207
8.6680,0.0865,-0.0980,0.0966,0.163
8.6730,-0.0092,-0.1234,0.0341,0.128
8.6770,0.0954,-0.0678,-0.1655,0.203
8.6820,-0.0833,0.1083,0.0993,0.169
8.6900,0.0835,0.0385,-0.0415,0.101
8.6960,-0.0143,-0.0567,0.0395,0.071
8.6980,0.0262,-0.1963,-0.2053,0.285
8.7050,-0.1495,-0.0024,0.0456,0.156
8.7130,0.0322,0.0166,-0.0521,0.063
8.7130,0.0224,0.0093,0.0314,0.040
8.7170,0.0413,-0.0762,-0.1349,0.160
8.7230,-0.2128,-0.0376,-0.0033,0.216
8.7270,0.0240,-0.0728,-0.0080,0.077
8.7320,0.0900,-0.0532,0.2412,0.263
8.7370,0.0917,-0.1311,-0.3279,0.365
8.7420,-0.1011,-0.0186,0.0640,0.121
8.7460,0.0208,-0.0659,0.0990,0.121
8.7510,0.0229,0.0295,0.1053,0.112
8.7590,0.0609,-0.0325,-0.2325,0.243
8.7610,-0.0795,0.0081,-0.0170,0.082
8.7660,-0.0670,-0.0182,0.0258,0.074
8.7750,-0.1092,-0.0227,0.1680,0.202
8.7760,0.0247,-0.0392,-0.2439,0.248
8.7820,-0.1060,0.0015,0.0429,0.114
8.7880,0.0513,0.0372,0.0876,0.108
8.7900,0.0792,-0.0153,0.0702,0.107
8.7950,0.0027,0.0560,-0.0751,0.094
8.8000,-0.1062,0.1290,-0.0578,0.177
8.8050,-0.0342,0.0543,0.1016,0.120
8.8100,0.0750,-0.0860,0.1814,0.214
8.8150,0.0365,-0.1161,-0.0716,0.141
8.8210,-0.0441,0.0153,-0.0757,0.089
8.8250,-0.0794,0.0840,0.0934,0.149
8.8300,0.0752,0.0121,0.1234,0.145
8.8350,0.0318,0.0214,-0.0556,0.068
8.8410,-0.0133,0.1660,-0.1809,0.246
8.8450,-0.0370,0.1550,0.1457,0.216
8.8490,0.0911,-0.0385,0.1564,0.185
8.8550,0.0168,-0.0927,-0.0229,0.097
8.8600,0.0026,0.0148,-0.1935,0.194
8.8640,-0.1232,0.0502,0.1118,0.174
8.8740,0.0912,-0.0286,0.1298,0.161
8.8740,0.0619,-0.0379,-0.0444,0.085
8.8820,0.0734,0.0549,-0.2173,0.236
8.8840,-0.1075,0.1256,0.1096,0.198
8.8900,0.0118,-0.1032,0.1039,0.147
8.8940,0.0188,-0.0645,-0.0630,0.092
8.8990,0.0972,-0.0236,-0.2903,0.307
8.9040,-0.0484,0.0644,0.0894,0.120
8.9090,0.0422,-0.0239,0.1527,0.160
8.9130,-0.0151,-0.0236,-0.0170,0.033
8.9180,0.0398,0.0288,-0.2732,0.278
8.9240,-0.0151,0.0808,0.1064,0.134
8.9290,0.0940,-0.0717,0.1150,0.165
8.9330,0.0291,-0.0189,-0.0853,0.092
8.9470,0.0220,0.0002,-0.2127,0.214
8.9470,-0.1230,0.0595,0.0667,0.152
8.9480,0.0130,-0.0952,0.1492,0.177
8.9550,0.0200,0.0006,0.0317,0.037
8.9580,0.0342,-0.0278,-0.2652,0.269
8.9630,-0.0989,0.0389,0.1001,0.146
8.9670,0.1082,-0.0800,0.1989,0.240
8.9740,0.0859,-0.0531,-0.0282,0.105
8.9770,0.1045,-0.0077,-0.1988,0.225
8.9820,-0.1003,0.1064,0.1137,0.185
8.9920,0.0664,-0.0511,0.1745,0.194
8.9920,0.0634,-0.0459,0.0662,0.103
8.9990,0.0110,-0.0693,-0.2831,0.292
9.0020,-0.2143,0.0594,0.0870,0.239
9.0070,0.0460,0.0304,0.0934,0.108
9.0120,0.0715,-0.0862,-0.0118,0.113
9.0170,0.0996,-0.1450,-0.4198,0.455
9.0220,-0.1265,-0.0417,0.1413,0.194
9.0270,-0.0378,0.0274,0.0951,0.106
9.0310,-0.1135,0.0009,-0.0125,0.114
9.0360,0.0868,-0.0395,-0.1738,0.198
9.0410,-0.0302,0.0509,0.0460,0.075
9.0460,0.0886,0.0148,0.0646,0.111
9.0510,-0.0120,-0.0447,0.1139,0.123
9.0560,-0.0165,-0.0587,-0.1979,0.207
9.0610,-0.1847,-0.0227,0.0671,0.198
9.0660,-0.0124,0.0059,0.0500,0.052
9.0760,0.0183,-0.0512,0.1444,0.154
9.0760,-0.0649,-0.0152,-0.1249,0.142
9.0850,-0.1567,0.1012,0.1277,0.226
9.0870,-0.0178,0.1051,0.0863,0.137
9.0950,0.0724,0.0188,0.0571,0.094
9.0960,0.0836,-0.0669,-0.0454,0.116
9.1000,0.0023,0.0452,0.0214,0.050
9.1080,-0.0333,0.0969,0.0473,0.113
9.1100,-0.0449,-0.0012,0.0588,0.074
9.1150,-0.0754,-0.0369,-0.0698,0.109
9.1190,-0.0487,-0.0082,-0.0716,0.087
9.1240,-0.0198,0.0843,0.0571,0.104
9.1290,0.0871,-0.0042,0.0448,0.098
9.1340,0.0318,0.0148,-0.0007,0.035
9.1400,-0.0016,0.1072,-0.0600,0.123
9.1440,-0.0063,0.0635,0.1683,0.180
9.1490,0.0886,-0.0580,0.2262,0.250
9.1550,0.0309,-0.0220,0.0297,0.048
9.1590,0.0167,0.1489,-0.0820,0.171
9.1640,-0.0830,0.1714,0.1630,0.251
9.1690,0.1026,-0.0626,0.0288,0.124
9.1740,0.0684,-0.1237,0.0214,0.143
9.1790,0.0632,-0.0017,-0.1282,0.143
9.1840,-0.1224,0.1573,0.1481,0.248
9.1930,0.0827,0.0635,0.0567,0.119
9.1970,-0.0224,-0.0320,-0.0079,0.040
9.1980,0.0800,-0.0246,-0.0908,0.123
9.2040,-0.0012,0.1227,0.0689,0.141
9.2090,0.0842,0.0221,0.0494,0.100
9.2140,-0.0327,-0.0136,-0.0151,0.039
9.2180,0.0105,-0.0372,-0.1431,0.148
9.2240,-0.0632,0.0130,0.1357,0.150
9.2280,0.0915,-0.1200,0.0681,0.166
9.2320,0.0196,-0.0382,0.1269,0.134
9.2380,0.0861,0.0546,-0.1186,0.156
9.2430,-0.1091,0.1207,0.0010,0.163
9.2470,0.1054,-0.0630,0.0437,0.130
9.2520,0.0687,-0.1051,0.1217,0.175
9.2580,0.0850,-0.0664,-0.2970,0.316
9.2620,-0.1457,0.0480,0.0259,0.156
9.2670,0.0454,-0.1849,0.0423,0.195
9.2770,0.0020,-0.0789,0.1036,0.130
9.2790,0.0568,-0.0070,-0.3030,0.308
9.2820,-0.1120,0.0666,0.0839,0.155
9.2870,0.0881,-0.1594,0.0690,0.195
9.2930,0.0587,-0.0205,0.0114,0.063
9.2970,-0.0080,-0.0489,-0.3802,0.383
9.3010,-0.1455,0.0085,0.1854,0.236
9.3070,0.0855,-0.0604,0.1838,0.212
9.3110,0.0680,0.0682,-0.0242,0.099
9.3160,-0.0627,-0.0867,-0.3348,0.351
9.3220,-0.0810,-0.0884,0.2754,0.300
9.3270,0.0760,-0.0972,-0.0638,0.139
9.3310,0.0397,-0.0537,-0.0562,0.087
9.3360,-0.0125,-0.0581,-0.1981,0.207
9.3410,-0.1858,-0.0269,0.1643,0.249
9.3460,-0.0181,0.0444,-0.0625,0.079
9.3510,0.0318,-0.0462,0.1160,0.129
9.3570,0.0909,-0.0009,-0.1128,0.145
9.3620,-0.0639,0.0466,0.0803,0.113
9.3660,0.0222,0.0130,-0.1315,0.134
9.3710,0.0266,-0.0963,0.1448,0.176
9.3770,0.0477,-0.0789,0.0107,0.093
9.3810,-0.1494,0.0544,-0.1412,0.213
9.3860,-0.0627,0.1203,-0.0475,0.144
9.3920,0.0087,-0.0372,0.1712,0.175
9.3950,-0.0459,-0.0845,-0.0461,0.107
9.4020,-0.1472,0.0064,-0.1763,0.230
9.4060,-0.0251,0.1297,0.0577,0.144
9.4100,0.0722,0.0148,0.1735,0.189
9.4150,0.0124,-0.0708,-0.0889,0.114
9.4200,-0.0775,0.0175,-0.0621,0.101
9.4250,0.0226,0.1361,0.2327,0.270
9.4360,0.0932,0.0210,0.1002,0.138
9.4360,0.0308,-0.0813,-0.1237,0.151
9.4420,-0.0333,-0.0070,-0.1891,0.192
9.4440,-0.1280,0.1188,0.1661,0.241
9.4490,0.0414,0.1107,0.1101,0.162
9.4540,0.0388,0.0338,-0.1115,0.123
9.4590,0.0838,-0.0020,-0.1509,0.173
9.4640,0.0593,0.0171,0.1683,0.179
9.4690,0.0943,-0.1207,-0.0087,0.153
9.4740,-0.0037,0.0037,-0.0157,0.017
9.4790,0.0156,0.1105,-0.1153,0.160
9.4840,-0.0772,0.1238,0.1088,0.182
9.4890,0.1487,-0.0054,-0.0061,0.149
9.4960,0.0809,-0.0789,-0.0345,0.118
9.4990,0.0164,0.0213,-0.1172,0.120
9.5050,-0.1830,0.1233,0.1519,0.268
9.5110,0.0746,-0.0463,-0.0131,0.089
9.5150,0.0525,-0.1242,0.0107,0.135
9.5180,0.0877,-0.0780,-0.0677,0.136
9.5230,-0.0600,0.1268,0.0302,0.143
9.5290,0.1042,-0.0047,-0.0270,0.108
9.5320,0.0676,0.0047,0.0752,0.101
9.5370,0.0553,-0.0381,-0.1888,0.200
9.5450,-0.1824,0.0477,-0.0140,0.189
9.5470,-0.0078,-0.0641,0.0692,0.095
9.5520,0.0608,-0.0445,0.1588,0.176
9.5580,0.0392,-0.1154,-0.2839,0.309
9.5630,-0.1176,0.0090,0.0293,0.122
9.5670,0.0635,-0.0646,0.1311,0.159
9.5720,0.0936,-0.0262,0.0185,0.099
9.5770,0.0954,-0.0758,-0.2569,0.284
9.5820,-0.1235,0.1171,0.0703,0.184
9.5880,-0.0205,0.0782,-0.0157,0.082
9.5930,-0.0323,-0.1005,0.0532,0.118
9.5970,0.0416,-0.1969,-0.2533,0.324
9.6020,-0.0773,-0.0340,0.0264,0.088
9.6080,0.0063,0.0564,0.1472,0.158
9.6120,0.0225,0.0227,0.0440,0.054
9.6160,0.0202,-0.1151,-0.2839,0.307
9.6210,-0.1222,-0.0050,0.0744,0.143
9.6280,0.0163,-0.0216,0.0525,0.059
9.6310,0.0492,0.0118,0.0615,0.080
9.6360,0.0016,-0.0453,-0.3424,0.345
9.6450,-0.2333,-0.0046,0.1184,0.262
9.6470,-0.0346,-0.0164,0.0605,0.072
9.6520,-0.0225,-0.0092,0.0980,0.101
9.6630,0.0774,-0.0116,-0.2256,0.239
9.6630,-0.0916,0.0692,0.0966,0.150
9.6650,-0.0079,0.0519,0.0840,0.099
9.6700,0.0609,-0.1051,-0.0188,0.123
9.6760,0.0604,-0.0830,-0.0827,0.132
9.6810,-0.0422,0.0008,0.0556,0.070
9.6860,-0.0490,0.1407,0.0908,0.174
9.6950,0.0581,0.0659,-0.0310,0.093
9.6960,0.0077,-0.0581,0.0523,0.079
9.7000,0.0316,0.0373,-0.0549,0.074
9.7060,-0.0445,0.1106,0.0191,0.121
9.7140,0.0674,0.0407,-0.0404,0.088
9.7160,-0.0329,-0.1211,0.0145,0.126
9.7200,-0.1036,0.0032,-0.0639,0.122
9.7260,-0.1241,0.1524,0.0102,0.197
9.7290,0.0167,0.0064,0.0908,0.093
9.7340,0.0333,-0.0720,0.1209,0.145
9.7400,0.0805,-0.0359,-0.1435,0.168
9.7460,0.0040,0.0760,0.0333,0.083
9.7490,0.0134,0.0112,0.1184,0.120
9.7540,-0.0721,0.0775,0.0249,0.109
9.7620,-0.0097,0.0791,-0.1675,0.186
9.7640,-0.0168,0.1211,0.1518,0.195
9.7700,0.0493,-0.0698,0.0794,0.117
9.7800,0.0300,-0.0646,-0.0114,0.072
9.7810,-0.0436,-0.0261,-0.1751,0.182
9.7890,-0.1785,0.0715,0.1182,0.226
9.7900,0.0198,-0.0691,0.0152,0.073
9.7970,0.0385,-0.0472,0.0341,0.070
9.7980,0.0952,0.0053,-0.2818,0.297
9.8040,-0.1238,0.1287,0.1667,0.244
9.8090,-0.0634,-0.0812,0.0537,0.116
9.8130,-0.0676,-0.0401,0.0462,0.091
9.8180,0.1229,-0.1300,-0.2650,0.320
9.8230,0.0696,0.0158,0.0646,0.096
9.8300,0.1378,-0.0294,0.0831,0.164
9.8330,0.0488,0.0704,0.0919,0.126
9.8380,0.0747,-0.0062,-0.2862,0.296
9.8430,-0.0495,0.0413,-0.0513,0.082
9.8470,0.0931,-0.0895,0.0797,0.152
9.8520,0.0566,-0.0579,-0.0301,0.086
9.8600,-0.0433,-0.0622,-0.1628,0.180
9.8630,-0.1591,0.0713,0.1186,0.211
9.8680,0.0272,-0.0266,0.0701,0.080
9.8730,0.0861,-0.0263,0.1075,0.140
9.8780,0.0049,-0.1020,-0.2303,0.252
9.8820,-0.1944,-0.0252,0.0777,0.211
9.8880,-0.0219,-0.0154,0.1221,0.125
9.8980,0.1348,-0.0320,0.0689,0.155
9.9000,0.0887,-0.1053,-0.2235,0.263
9.9020,-0.0353,0.0950,0.0038,0.101
9.9070,-0.0350,0.0728,0.0844,0.117
9.9120,0.0317,0.0033,0.0837,0.090
9.9200,-0.0088,-0.0490,-0.1662,0.173
9.9320,-0.1629,-0.0129,-0.0105,0.164
9.9320,0.0188,0.0109,-0.0603,0.064
9.9330,0.0849,-0.0580,0.0256,0.106
9.9360,0.0369,-0.0575,-0.0956,0.117
9.9430,-0.0865,0.0285,0.0049,0.091
9.9460,-0.0265,0.0568,0.0096,0.063
9.9500,0.0209,-0.0575,0.1495,0.162
9.9550,0.0777,-0.1045,-0.0368,0.135
9.9600,-0.0223,0.0316,0.0133,0.041
9.9680,-0.0600,0.1144,0.0820,0.153
9.9700,0.0259,-0.0478,0.2332,0.239
9.9760,-0.0004,-0.1566,-0.1081,0.190
9.9800,-0.0715,-0.0010,-0.0597,0.093
9.9850,-0.1208,0.1461,0.0049,0.190
9.9900,-0.0369,0.0380,0.1282,0.139
9.9960,-0.1029,-0.0170,-0.0485,0.115
10.0020,-0.0662,0.0568,-0.0623,0.107
10.0040,0.0102,0.1014,0.0759,0.127
10.0100,0.0503,-0.0347,0.1583,0.170
10.0150,-0.0663,-0.0273,0.0051,0.072
10.0190,-0.0750,0.0512,-0.1658,0.189
10.0240,-0.1337,0.0674,0.0990,0.180
10.0290,0.0878,-0.1110,0.1053,0.176
10.0340,-0.0410,-0.0699,0.0190,0.083
10.0390,0.0024,0.0565,-0.1734,0.182
10.0440,-0.1446,0.1058,0.1104,0.211
10.0490,0.0772,-0.0921,0.1973,0.231
10.0540,0.0407,-0.0843,-0.0654,0.114
10.0600,0.0572,0.0041,-0.1740,0.183
10.0640,-0.1140,0.1655,0.1858,0.274
10.0690,0.0173,-0.0139,0.1391,0.141
10.0740,-0.0588,-0.0613,-0.0210,0.088
10.0790,0.0912,-0.0751,-0.2368,0.265
10.0890,-0.0094,0.0322,0.0690,0.077
10.0900,0.1496,-0.0180,0.1775,0.233
10.0940,-0.0060,0.0414,-0.0518,0.067
10.0980,0.1033,0.0411,-0.1534,0.189
10.1030,-0.0709,0.0716,0.1422,0.174
10.1080,0.0648,-0.1450,0.0840,0.180
10.1130,0.0215,-0.0798,-0.0258,0.087
10.1180,0.0831,-0.0245,-0.1917,0.210
10.1220,-0.0505,0.1513,0.0828,0.180
10.1300,0.0995,0.0242,0.0868,0.134
10.1320,0.0844,-0.0495,-0.0349,0.104
10.1370,0.1051,-0.1204,-0.2078,0.262
10.1440,-0.0096,0.0373,0.1071,0.114
10.1480,0.0901,0.0418,0.1086,0.147
10.1520,0.0703,0.0865,0.0911,0.144
10.1570,0.0865,-0.0827,-0.2276,0.257
10.1630,-0.0684,-0.0441,0.1349,0.158
10.1690,0.1101,-0.0081,0.1575,0.192
10.1730,0.1019,0.0418,0.1206,0.163
10.1800,0.0894,0.0034,-0.2980,0.311
10.1860,-0.0915,-0.0061,0.1245,0.155
10.1870,0.1156,-0.0417,0.0689,0.141
10.1910,0.1383,0.0179,0.1656,0.216
10.1990,0.1160,0.0177,-0.1751,0.211
10.2020,-0.0295,0.1290,-0.0479,0.141
10.2070,-0.0031,0.0045,0.1162,0.116
10.2120,0.1155,-0.0311,0.1010,0.157
10.2160,0.0838,-0.0688,-0.3032,0.322
10.2210,-0.0329,0.0979,0.0576,0.118
10.2290,-0.0350,0.0898,0.1046,0.142
10.2310,0.0791,-0.0225,0.0278,0.087
10.2350,0.0216,-0.1244,-0.2050,0.241
10.2400,-0.0233,0.0049,0.0008,0.024
10.2460,0.0645,0.0404,0.0245,0.080
10.2500,0.0710,0.0472,0.0955,0.128
10.2560,0.0776,-0.0007,-0.2090,0.223
10.2610,-0.0320,0.0896,-0.0625,0.114
10.2650,-0.0222,0.0746,0.0543,0.095
10.2700,0.0537,-0.1063,-0.0221,0.121
10.2750,-0.0652,-0.0960,-0.1596,0.197
10.2800,-0.0976,0.0067,-0.0538,0.112
10.2850,-0.1014,0.0067,0.1246,0.161
10.2900,0.0631,-0.1239,0.1307,0.191
10.2960,0.0223,-0.0850,-0.0009,0.088
10.3000,0.0294,0.1412,-0.0223,0.146
10.3050,0.0670,0.0877,0.2270,0.252
10.3100,0.0853,-0.0150,-0.0121,0.087
10.3150,-0.1454,0.0705,-0.0785,0.180
10.3190,-0.0537,0.1221,-0.0731,0.152
10.3240,0.0508,0.0001,0.1957,0.202
10.3300,0.1213,0.0333,0.0754,0.147
10.3340,-0.1713,-0.0169,-0.0391,0.177
10.3390,-0.0772,0.1018,-0.1385,0.188
10.3450,0.0843,-0.0580,0.2115,0.235
10.3490,0.0999,0.0564,-0.0062,0.115
10.3530,-0.0690,-0.0152,-0.0394,0.081
10.3590,-0.0966,0.0395,-0.0770,0.130
10.3660,0.0747,0.0392,0.1443,0.167
10.3680,0.0810,0.0222,-0.0325,0.090
10.3730,-0.1425,-0.0634,0.0603,0.167
10.3820,-0.0771,0.0249,-0.0683,0.106
10.3860,0.0397,0.0295,-0.0084,0.050
10.3880,0.0820,-0.0539,-0.0629,0.117
10.3980,0.0600,-0.0795,0.0823,0.129
10.3990,-0.0259,-0.0220,-0.0631,0.072
10.4050,-0.0422,0.1157,-0.0602,0.137
10.4080,0.0507,-0.0015,0.0661,0.083
10.4190,0.0026,-0.0442,0.1628,0.169
10.4190,-0.0685,-0.0606,-0.1826,0.204
10.4230,-0.0726,0.0894,-0.0174,0.116
10.4300,0.0228,-0.0679,0.0397,0.082
10.4340,-0.1152,-0.0720,0.2387,0.275
10.4370,-0.0594,0.0020,-0.2426,0.250
10.4420,-0.1205,-0.0123,-0.0057,0.121
10.4480,0.0535,-0.0762,0.1605,0.186
10.4520,0.0246,-0.0330,0.0975,0.106
10.4570,0.0509,0.0169,-0.3613,0.365
10.4620,-0.1252,0.1165,0.1495,0.227
10.4670,-0.0366,0.0300,0.2100,0.215
10.4710,-0.0008,-0.0295,-0.0172,0.034
10.4810,0.0896,-0.0863,-0.2828,0.309
10.4820,-0.0227,-0.0666,0.1490,0.165
10.4870,-0.0558,-0.0281,0.1074,0.124
10.4920,-0.0576,0.0172,0.0353,0.070
10.4970,-0.0119,-0.0045,-0.3565,0.357
10.5020,-0.0853,-0.0068,0.2373,0.252
10.5060,0.0838,0.0384,0.0550,0.107
10.5120,0.0190,0.0356,-0.0356,0.054
10.5160,-0.0593,0.0519,-0.1777,0.194
10.5200,-0.1940,-0.0362,0.1014,0.222
10.5250,0.0044,-0.0715,-0.0015,0.072
10.5310,0.0849,-0.0731,0.1789,0.211
10.5360,0.0391,0.0034,-0.1406,0.146
10.5410,-0.2006,0.1434,-0.0255,0.248
10.5460,-0.0210,0.0947,-0.0371,0.104
10.5510,0.0904,-0.0889,0.0676,0.144
10.5560,0.1299,-0.0336,-0.0279,0.137
10.5600,-0.0821,0.1637,-0.1012,0.209
10.5660,-0.1667,0.1435,-0.0648,0.229
10.5710,0.0101,-0.1139,0.1374,0.179
10.5750,0.0028,-0.1866,-0.0417,0.191
10.5800,-0.2033,0.0665,-0.1244,0.247
10.5850,-0.1920,0.1631,0.0784,0.264
10.5900,0.0608,-0.0328,0.2177,0.228
10.6010,0.0864,-0.1226,-0.0190,0.151
10.6020,-0.0138,0.0018,-0.1684,0.169
10.6040,-0.0589,0.1513,0.1652,0.232
10.6090,0.0958,0.0576,0.1069,0.155
10.6150,0.0428,-0.1090,-0.0885,0.147
10.6200,0.0924,-0.1128,-0.1471,0.207
10.6240,-0.0486,0.0447,0.1721,0.184
10.6300,-0.0292,0.0490,0.0971,0.113
10.6340,-0.1569,0.0840,-0.0224,0.179
10.6390,0.0248,0.0311,-0.1290,0.135
10.6430,0.0505,0.0548,0.1568,0.174
10.6490,0.1567,-0.1212,0.0321,0.201
10.6530,-0.0841,-0.0537,-0.0108,0.100
10.6580,-0.1448,0.0701,-0.1436,0.216
10.6630,-0.2576,0.1596,0.0806,0.314
10.6680,0.0504,-0.0458,0.1250,0.142
10.6730,0.0215,-0.0763,0.2023,0.217
10.6900,0.0833,-0.0139,-0.1387,0.162
10.6910,-0.1285,0.0645,0.0974,0.174
10.6920,0.0837,-0.0998,0.2010,0.239
10.6950,0.0829,-0.0942,0.1684,0.210
10.7130,0.1060,0.0228,-0.1082,0.153
10.7150,-0.1344,0.1698,0.1252,0.250
10.7150,0.0328,0.0900,0.0672,0.117
10.7160,-0.0102,-0.0224,-0.0377,0.045
10.7190,0.0493,-0.1884,-0.2676,0.331
10.7220,-0.0530,-0.0231,0.1024,0.118
10.7280,-0.0074,-0.0276,0.0613,0.068
10.7360,-0.1213,0.0722,0.0465,0.149
10.7370,-0.0085,-0.0138,-0.3027,0.303
10.7420,-0.1104,-0.0753,0.0486,0.142
10.7470,0.1374,-0.1221,0.0838,0.202
10.7520,0.1219,-0.0546,0.0902,0.161
10.7570,0.0689,-0.0186,-0.2973,0.306
10.7630,-0.1522,0.0860,0.0065,0.175
10.7670,-0.0063,-0.0405,0.1156,0.123
10.7710,0.0006,-0.0663,0.1859,0.197
10.7760,0.0672,-0.0989,-0.2808,0.305
10.7820,-0.1610,0.0752,0.0372,0.182
10.7860,0.0041,0.0698,0.0274,0.075
10.7910,-0.0078,0.0170,0.0509,0.054
10.8060,0.0707,-0.0900,-0.2865,0.309
10.8070,-0.1196,-0.0419,0.1003,0.162
10.8110,-0.0736,-0.0393,0.0686,0.108
10.8120,-0.0185,0.0180,0.0704,0.075
10.8200,-0.0088,-0.0415,-0.2197,0.224
10.8210,-0.0632,0.0489,0.0052,0.080
10.8260,-0.0153,0.0342,0.0336,0.050
10.8320,0.0914,-0.0110,0.1330,0.162
10.8360,0.0147,-0.0110,-0.1766,0.178
10.8400,-0.1680,-0.0275,-0.0327,0.173
10.8450,-0.1382,-0.0060,0.0055,0.138
10.8500,0.0740,-0.1009,0.1075,0.165
10.8550,0.0401,-0.0930,-0.1473,0.179
10.8600,-0.0218,0.0572,-0.0796,0.100
10.8660,-0.0905,0.1350,0.0492,0.170
10.8700,-0.0164,-0.0798,0.0772,0.112
10.8750,-0.0852,-0.0864,-0.1417,0.187
10.8800,-0.0773,-0.0408,-0.0385,0.095
10.8850,-0.0127,0.1470,-0.0239,0.149
10.8890,0.1416,-0.0133,0.0759,0.161
10.8940,0.1096,-0.1129,-0.0220,0.159
10.8990,0.0970,-0.0171,-0.1405,0.172
10.9120,-0.0225,0.1561,0.0315,0.161
10.9140,0.0986,0.0125,0.1571,0.186
10.9140,0.0740,0.0147,-0.0270,0.080
10.9190,0.0903,0.0170,-0.1311,0.160
10.9240,-0.1074,0.0904,0.1001,0.172
10.9300,0.0832,-0.0100,0.0661,0.107
10.9340,0.0185,-0.0194,-0.0674,0.072
10.9380,0.0801,-0.0358,-0.2590,0.273
10.9430,-0.0678,0.0687,0.1394,0.170
10.9480,0.0087,0.0041,0.0552,0.056
10.9530,-0.0932,0.0681,-0.0520,0.127
10.9580,0.0193,0.0201,-0.1679,0.170
10.9650,-0.0260,0.0746,0.1230,0.146
10.9680,0.1378,-0.0589,0.0579,0.161
10.9730,0.0535,-0.0087,-0.0043,0.054
10.9780,0.0533,0.0080,-0.2130,0.220
10.9880,-0.1582,0.0840,0.1233,0.217
10.9880,0.0470,-0.0187,0.0819,0.096
10.9920,0.0562,0.0076,-0.0208,0.060
10.9980,0.0369,-0.0517,-0.1511,0.164
11.0020,-0.1200,0.0722,0.0803,0.161
11.0070,-0.0170,-0.0921,0.1295,0.160
11.0130,-0.0240,-0.0320,-0.0353,0.053
11.0170,-0.0045,-0.0935,-0.2937,0.308
11.0220,-0.0638,0.0545,0.0718,0.110
11.0270,0.0433,-0.0171,0.1329,0.141
11.0320,0.0287,-0.0454,-0.0248,0.059
11.0370,-0.0639,-0.0829,-0.2192,0.243
11.0420,-0.1962,-0.0086,0.1813,0.267
11.0470,-0.0641,-0.0727,0.0493,0.109
11.0520,0.0076,-0.0294,0.0679,0.074
11.0570,0.0789,-0.0577,-0.2246,0.245
11.0610,-0.1850,-0.0453,0.0976,0.214
11.0670,-0.0171,-0.1375,0.1182,0.182
11.0710,0.0210,-0.0888,0.0555,0.107
11.0760,0.0494,0.0021,-0.3626,0.366
11.0850,-0.0647,0.1255,0.0747,0.160
11.0910,0.0118,-0.1175,-0.0564,0.131
11.0920,-0.0643,-0.0360,-0.0394,0.084
11.0960,0.0289,-0.1140,-0.2502,0.277
11.1010,0.0691,0.0388,0.1054,0.132
11.1060,0.1014,-0.1039,-0.0378,0.150
11.1110,-0.1010,-0.0366,0.0764,0.132
11.1160,-0.1165,-0.1835,-0.1971,0.293
11.1200,-0.0159,-0.0277,0.1865,0.189
11.1250,0.1050,0.0485,0.0070,0.116
11.1310,-0.0216,0.0837,0.0615,0.106
11.1350,-0.1446,-0.0688,-0.0861,0.182
11.1400,-0.1554,-0.0303,-0.0094,0.159
11.1450,-0.0427,0.0744,-0.0188,0.088
11.1520,0.1070,0.0382,0.1023,0.153
11.1550,0.0016,-0.0239,-0.1002,0.103
11.1600,-0.0671,0.0024,-0.1184,0.136
11.1650,-0.1377,-0.0546,0.0535,0.157
11.1700,0.0295,-0.1610,0.0720,0.179
11.1740,-0.0705,-0.0245,-0.0662,0.100
11.1800,-0.0934,0.0730,-0.0894,0.148
11.1900,-0.0952,0.0604,0.0300,0.117
11.1900,0.0620,-0.1417,0.1436,0.211
11.1960,-0.0359,-0.0647,0.0902,0.117
11.2000,0.0880,0.1018,-0.1454,0.198
11.2040,-0.0196,0.1317,0.1571,0.206
11.2090,0.1012,-0.0545,0.2223,0.250
11.2150,0.0528,-0.0043,-0.0240,0.058
11.2190,0.0527,0.0550,-0.2231,0.236
11.2230,-0.0927,0.1256,0.1394,0.209
11.2290,0.0621,0.0344,0.1288,0.147
11.2340,-0.0950,-0.0134,-0.0621,0.114
11.2380,0.0460,0.0127,-0.2230,0.228
11.2430,-0.1301,-0.0396,0.2155,0.255
11.2490,0.0514,-0.1366,0.1852,0.236
11.2530,-0.0605,0.0354,-0.0062,0.070
11.2580,0.0612,0.0848,-0.1319,0.168
11.2630,-0.1270,0.0888,0.2062,0.258
11.2680,0.1161,-0.0590,0.2163,0.253
11.2730,0.0820,0.0293,0.0057,0.087
11.2780,0.1125,0.0219,-0.1249,0.169
11.2870,0.0523,0.1475,0.0945,0.183
11.2880,0.1396,-0.0103,0.0581,0.152
11.2930,0.0458,-0.0031,0.0244,0.052
11.3010,0.0480,0.0088,-0.0755,0.090
11.3090,-0.0329,0.1274,0.0058,0.132
11.3090,0.1191,0.0551,0.1695,0.214
11.3130,0.1346,0.0002,0.0613,0.148
11.3190,0.1053,-0.0141,-0.1812,0.210
11.3220,-0.0353,0.0619,0.0410,0.082
11.3270,0.1215,-0.0074,0.0478,0.131
11.3330,0.0446,-0.1354,-0.0523,0.152
11.3370,-0.0008,-0.1035,-0.0590,0.119
11.3410,-0.1217,0.0683,-0.0561,0.150
11.3460,0.0050,0.0297,0.1105,0.114
11.3510,0.0571,-0.1081,0.0573,0.135
11.3560,-0.1261,-0.1357,0.0307,0.188
11.3610,-0.0846,0.1074,-0.0122,0.137
11.3660,0.0063,0.0519,-0.0026,0.052
11.3710,0.1199,-0.1548,0.1160,0.228
11.3770,0.0738,-0.1748,-0.0249,0.191
11.3880,-0.0547,0.0592,-0.0674,0.105
11.3880,-0.0922,0.1465,0.0969,0.198
11.3990,0.0484,-0.0540,0.0771,0.106
11.4080,0.0219,-0.1652,-0.0683,0.180
11.4080,-0.0042,0.0023,-0.0464,0.047
11.4090,-0.0755,0.1542,0.0703,0.186
11.4110,0.0532,0.0912,-0.1629,0.194
11.4200,-0.1417,-0.0282,-0.1283,0.193
11.4210,-0.0527,-0.0612,0.0365,0.089
11.4250,-0.0690,0.0628,0.1121,0.146
11.4300,0.0431,0.0077,-0.0122,0.045
11.4350,-0.1258,-0.0067,-0.0880,0.154
11.4390,-0.1365,-0.0471,-0.0659,0.159
11.4450,-0.1046,-0.0040,0.2051,0.230
11.4500,0.1856,-0.0062,0.0350,0.189
11.4550,0.0655,0.0009,-0.0745,0.099
11.4590,-0.0013,-0.0015,-0.0217,0.022
11.4650,-0.2125,0.1194,0.1399,0.281
11.4700,-0.0636,-0.0049,-0.0013,0.064
11.4740,-0.1296,-0.0667,0.0414,0.151
11.4790,0.0140,-0.1018,-0.0538,0.116
11.4900,-0.0622,0.1079,0.1578,0.201
11.4910,0.0784,0.0832,-0.0239,0.117
11.4950,-0.1452,-0.0267,-0.0118,0.148
11.5020,-0.0561,-0.0217,-0.0046,0.060
11.5050,-0.0701,0.1185,0.1639,0.214
11.5100,0.0230,0.0368,0.1388,0.145
11.5150,-0.1313,0.0483,-0.0427,0.146
11.5200,-0.0208,0.0004,-0.0755,0.078
11.5250,0.0671,0.0550,0.0034,0.087
11.5290,0.1210,0.0118,0.0295,0.125
11.5360,-0.0034,-0.0334,-0.0775,0.084
11.5380,-0.2120,-0.0687,-0.0627,0.231
11.5430,-0.1271,0.0291,0.0470,0.139
11.5500,-0.0051,-0.0374,0.1724,0.176
11.5530,0.0377,0.0079,-0.0094,0.040
11.5580,-0.0265,0.0457,-0.1042,0.117
11.5630,0.0781,-0.0306,-0.0417,0.094
11.5690,0.0343,-0.1301,0.1699,0.217
11.5730,0.0530,0.0014,-0.2373,0.243
11.5790,-0.2698,0.0369,-0.0669,0.280
11.5850,-0.0517,0.1267,0.0737,0.155
11.5880,0.0101,-0.1140,0.1490,0.188
11.5930,0.1857,-0.1320,-0.1536,0.275
11.6070,-0.0601,-0.0195,-0.1404,0.154
11.6080,0.0709,0.1159,0.0102,0.136
11.6090,-0.0177,-0.0110,0.1264,0.128
11.6150,0.1105,-0.0892,-0.2068,0.251
11.6240,-0.0541,-0.0718,-0.0628,0.110
11.6250,0.1125,0.0237,0.0920,0.147
11.6330,0.0663,0.0020,0.0936,0.115
11.6340,0.1345,-0.0550,-0.1183,0.187
11.6370,-0.0279,0.0521,-0.1008,0.117
11.6420,0.1028,0.0470,0.0496,0.123
11.6470,0.0566,0.1177,0.0563,0.142
11.6520,0.0632,0.0195,-0.0676,0.095
11.6580,-0.0131,0.1142,-0.2521,0.277
11.6610,-0.0485,0.0515,-0.1219,0.141
11.6660,-0.1478,-0.1008,0.0714,0.193
11.6720,0.0714,-0.2186,0.1063,0.253
11.6760,0.0281,-0.0556,-0.3454,0.351
11.6800,0.0209,0.1465,-0.1242,0.193
11.6860,0.0373,0.1524,0.3728,0.404
11.6930,0.1199,-0.0268,-0.0598,0.137
11.6960,0.0504,-0.0669,-0.3844,0.393
11.7020,0.1070,-0.0259,-0.1012,0.150
11.7050,0.0796,-0.0566,0.3623,0.375
11.7100,0.1666,0.0530,-0.0488,0.182
11.7180,-0.1262,0.0287,-0.4494,0.468
11.7210,-0.1463,0.0402,0.1333,0.202
11.7250,0.1014,0.0019,0.3671,0.381
11.7300,0.1504,-0.0812,-0.1841,0.251
11.7370,0.0714,0.0572,-0.4720,0.481
11.7400,-0.1544,0.0141,0.3149,0.351
11.7450,0.0436,0.1587,0.1154,0.201
11.7510,0.1096,-0.0681,-0.2558,0.286
11.7550,0.0330,-0.0366,-0.0590,0.077
11.7590,-0.0860,0.0113,0.3164,0.328
11.7640,-0.1540,0.1061,0.0195,0.188
11.7720,-0.1217,-0.1011,-0.1895,0.247
11.7740,-0.2312,-0.1081,-0.0291,0.257
11.7790,0.0629,0.0808,0.3533,0.368
11.7890,0.1415,0.1213,-0.2781,0.335
11.7900,0.0914,-0.0150,0.0449,0.103
11.7960,0.0127,-0.0676,0.1117,0.131
11.7990,0.0485,0.0735,0.0375,0.096
11.8050,0.1442,0.1164,-0.1800,0.258
11.8080,0.1010,-0.0701,0.1811,0.219
11.8140,0.1150,-0.0629,0.1522,0.201
11.8190,0.1054,0.1354,0.0110,0.172
11.8240,0.1031,0.1138,-0.1372,0.206
11.8280,0.0815,-0.0943,0.1832,0.222
11.8350,0.1073,-0.0965,0.2308,0.272
11.8390,0.1050,0.0565,-0.2976,0.321
11.8440,0.0048,0.0947,-0.0679,0.117
11.8480,-0.0383,-0.0202,0.2549,0.259
11.8550,-0.0362,0.0180,-0.0561,0.069
11.8590,-0.0908,-0.0084,-0.4241,0.434
11.8630,-0.1146,0.0181,0.2097,0.240
11.8690,0.1578,-0.0465,0.0135,0.165
11.8730,0.0310,0.0706,-0.1180,0.141
11.8780,0.1007,-0.0204,-0.5336,0.543
11.8830,-0.1480,-0.0203,0.4875,0.510
11.8940,0.1482,-0.1040,-0.0891,0.202
11.8940,0.0501,0.0274,-0.1176,0.131
11.9080,0.0908,0.0081,-0.4545,0.464
11.9090,-0.0600,0.0081,0.4566,0.461
11.9090,0.1407,-0.0971,-0.2728,0.322
11.9140,0.0283,-0.0302,-0.1219,0.129
11.9240,0.0379,-0.0326,-0.1744,0.181
11.9250,-0.0221,0.0677,0.2417,0.252
11.9270,0.0496,-0.0735,-0.2939,0.307
11.9320,-0.0960,-0.0998,-0.1072,0.175
11.9370,-0.0816,-0.0759,-0.0879,0.142
11.9410,-0.0433,0.0461,0.1536,0.166
11.9460,-0.0003,0.0818,-0.1071,0.135
11.9520,0.0571,-0.0616,-0.0185,0.086
11.9560,-0.0387,-0.1477,-0.0377,0.157
11.9610,0.0163,-0.1022,0.1177,0.157
11.9660,-0.0937,0.0819,0.1343,0.183
11.9710,0.0738,0.0268,0.1174,0.141
11.9760,-0.0410,-0.0497,-0.0213,0.068
11.9800,0.1527,-0.1476,-0.0261,0.214
11.9860,-0.0053,-0.0184,0.3922,0.393
11.9900,0.0210,0.1130,0.0714,0.135
11.9960,-0.3705,0.1510,-0.2011,0.448
12.0010,-0.0973,-0.0929,-0.1148,0.177
12.0050,0.0025,-0.0784,0.6931,0.698
12.0100,0.1720,-0.0472,0.1187,0.214
12.0150,-0.3293,0.1296,-0.3690,0.511
12.0200,-0.1802,0.0482,-0.0125,0.187
12.0250,-0.0063,-0.0426,0.7738,0.775
12.0300,0.2276,0.0625,0.1873,0.301
12.0370,-0.2593,0.1412,-0.4868,0.569
12.0400,-0.0338,0.0432,0.1041,0.118
12.0450,0.0657,-0.1695,0.8257,0.845
12.0490,0.1370,-0.0545,0.1053,0.181
12.0560,-0.4023,0.1916,-0.5258,0.689
12.0600,-0.0284,0.1436,0.0867,0.170
12.0650,0.1305,-0.1481,0.7127,0.740
12.0700,0.3425,-0.1957,-0.0147,0.395
12.0740,-0.4312,0.2250,-0.3229,0.584
12.0790,-0.1024,0.1769,-0.1863,0.277
12.0850,0.0854,-0.0789,0.5572,0.569
12.0890,0.5792,-0.3656,-0.1031,0.693
12.0930,-0.2812,0.1509,-0.0624,0.325
12.0990,-0.1675,0.3084,-0.2391,0.425
12.1040,-0.1728,0.0499,0.5856,0.613
12.1090,0.6296,-0.4854,-0.0604,0.797
12.1140,-0.0759,-0.0357,-0.0579,0.102
12.1210,-0.1131,0.3371,-0.2609,0.441
12.1230,-0.1276,0.2339,0.2986,0.400
12.1280,0.6151,-0.4738,-0.0650,0.779
12.1330,0.1937,-0.3347,-0.1175,0.404
12.1380,-0.1929,0.2082,-0.1604,0.326
12.1430,-0.2665,0.4708,-0.0001,0.541
12.1480,0.2183,-0.2634,-0.1267,0.365
12.1560,0.3322,-0.4400,-0.0979,0.560
12.1580,-0.0311,0.0862,-0.1695,0.193
12.1620,-0.1669,0.5138,-0.0546,0.543
12.1700,0.0815,-0.0630,-0.0664,0.123
12.1720,0.2673,-0.3568,-0.1118,0.460
12.1770,0.0376,-0.1056,-0.1618,0.197
12.1820,-0.0433,0.3248,0.1634,0.366
12.1880,0.0521,0.0400,-0.0232,0.070
12.1910,0.0351,-0.3688,-0.1020,0.384
12.1970,-0.0556,-0.2226,-0.3505,0.419
12.2070,-0.2276,0.1862,0.2427,0.381
12.2080,0.0879,0.1643,0.1253,0.224
12.2120,0.0971,-0.0631,-0.1043,0.156
12.2170,0.1259,-0.2232,-0.3886,0.465
12.2220,-0.1730,-0.0818,0.3336,0.385
12.2280,-0.0988,-0.0817,0.3093,0.335
12.2310,-0.1033,-0.0005,-0.1284,0.165
12.2380,-0.0457,0.0496,-0.4939,0.498
12.2460,0.0450,-0.0340,0.2595,0.266
12.2480,0.1593,-0.1033,0.4002,0.443
12.2510,-0.0390,-0.0435,-0.0496,0.077
12.2570,-0.2416,0.0688,-0.4869,0.548
12.2610,-0.3034,-0.0147,0.3287,0.448
12.2690,0.1863,-0.2129,0.5147,0.587
12.2710,0.1524,-0.0525,0.0934,0.186
12.2760,-0.0575,0.1649,-0.5878,0.613
12.2810,-0.2529,0.1504,0.1777,0.344
12.2870,0.2079,-0.1628,0.6913,0.740
12.2910,0.2167,-0.1793,0.1503,0.319
12.2950,-0.2488,0.1004,-0.5668,0.627
12.3000,-0.3887,0.1937,0.1006,0.446
12.3090,0.0412,-0.0573,0.8199,0.823
12.3130,0.3200,-0.3154,0.0302,0.450
12.3190,-0.2556,0.0099,-0.3666,0.447
12.3210,-0.3284,0.2513,0.0330,0.415
12.3240,-0.1757,0.1196,0.8359,0.863
12.3300,0.4379,-0.2821,-0.0326,0.522
12.3340,-0.2456,-0.1957,-0.3217,0.450
12.3400,-0.2229,0.1656,0.0897,0.292
12.3440,-0.1515,0.1583,0.8113,0.840
12.3490,0.3524,-0.2554,-0.0022,0.435
12.3570,-0.2450,-0.0257,-0.4420,0.506
12.3590,-0.0646,0.2206,0.0151,0.230
12.3650,0.1425,0.0842,0.7272,0.746
12.3700,0.2803,-0.0809,-0.0026,0.292
12.3730,-0.5002,-0.0355,-0.6096,0.789
12.3840,-0.0926,0.0388,-0.0663,0.120
12.3850,0.2955,-0.0186,0.6005,0.670
12.3920,0.2683,0.0196,-0.0838,0.282
12.3960,-0.4498,0.0361,-0.2533,0.518
12.3990,0.0124,0.0146,-0.2554,0.256
12.4180,0.3214,0.0694,0.5073,0.605
12.4190,0.3947,0.0237,-0.2533,0.470
12.4200,-0.3383,-0.0028,-0.0547,0.343
12.4200,-0.0795,0.0115,-0.2099,0.225
12.4230,0.1252,-0.0051,0.1918,0.229
12.4290,0.2657,-0.1677,-0.1502,0.348
12.4330,-0.0233,-0.1173,0.1607,0.200
12.4380,-0.1377,0.1696,-0.2553,0.336
12.4440,-0.0922,0.1645,-0.0949,0.211
12.4470,0.2327,-0.2970,0.1036,0.391
12.4550,0.2105,-0.3206,0.1775,0.423
12.4650,0.0601,0.1528,-0.6352,0.656
12.4670,-0.2405,0.2409,-0.0131,0.341
12.4680,0.0079,-0.2159,0.2570,0.336
12.4840,0.1054,-0.3018,0.1013,0.335
12.4870,0.1058,0.0783,-0.9240,0.933
12.4870,-0.0518,0.2096,0.3509,0.412
12.4880,0.0767,-0.0799,0.4078,0.423
12.4930,0.0216,-0.2210,-0.2714,0.351
12.4970,0.0701,-0.0584,-0.9570,0.961
12.5010,-0.0258,0.0708,0.6622,0.666
12.5110,0.0929,-0.0704,0.4701,0.484
12.5120,0.0072,-0.0013,-0.4266,0.427
12.5160,-0.0829,0.0415,-0.7559,0.762
12.5250,-0.2098,0.0631,0.9155,0.941
12.5370,0.0240,-0.0183,0.4125,0.414
12.5370,0.1032,-0.0424,-0.7351,0.744
12.5370,0.0176,-0.0329,-0.3877,0.389
12.5460,0.0027,-0.0470,0.8842,0.885
12.5460,-0.0312,0.0293,0.2307,0.235
12.5500,0.0127,0.1128,-0.6132,0.624
12.5570,-0.2714,0.0529,-0.1942,0.338
12.5600,-0.0397,0.0051,0.7643,0.765
12.5650,0.1082,-0.0500,0.0273,0.122
12.5720,0.0727,-0.0308,-0.3408,0.350
12.5750,-0.2306,-0.0117,-0.1587,0.280
12.5800,-0.1494,-0.0284,0.5728,0.593
12.5850,0.1300,-0.0332,-0.0087,0.134
12.5900,0.0964,0.0960,-0.0421,0.142
12.5950,-0.2331,0.1532,-0.1807,0.332
12.6000,-0.2686,0.0959,0.2019,0.349
12.6050,0.1017,-0.1624,0.0870,0.210
12.6090,0.0848,-0.1598,0.0128,0.181
12.6140,-0.2877,0.0554,-0.3099,0.426
12.6190,-0.1819,0.2251,0.0155,0.290
12.6280,0.0900,-0.0046,0.2163,0.234
12.6290,0.1469,-0.1598,0.0678,0.227
12.6340,-0.3283,0.0315,-0.3601,0.488
12.6390,-0.2127,0.2514,0.0180,0.330
12.6440,0.1046,-0.0429,0.2378,0.263
12.6490,0.3645,-0.4563,0.0702,0.588
12.6540,-0.1278,-0.1954,-0.2214,0.322
12.6590,-0.1796,0.3209,-0.0634,0.373
12.6630,-0.0914,0.1604,0.2569,0.316
12.6690,0.3456,-0.2676,-0.0039,0.437
12.6740,-0.0013,-0.1717,-0.1736,0.244
12.6790,0.0326,0.1798,-0.0586,0.192
12.6830,-0.1421,0.0793,0.2115,0.267
12.6890,0.2306,-0.4226,-0.0254,0.482
12.6930,-0.1136,-0.0851,-0.1448,0.203
12.6980,0.0065,0.2090,-0.2068,0.294
12.7030,-0.0512,0.1349,0.3145,0.346
12.7080,0.1995,-0.3649,0.0225,0.416
12.7130,-0.1136,-0.0395,-0.2691,0.295
12.7180,-0.1273,0.1732,-0.1875,0.285
12.7230,-0.1369,0.0917,0.2644,0.312
12.7280,0.2716,-0.3456,-0.0370,0.441
12.7330,0.1994,-0.1493,-0.1828,0.309
12.7420,-0.0155,0.1662,-0.0845,0.187
12.7420,-0.2258,0.1636,0.2621,0.383
12.7500,0.1065,-0.1854,0.0538,0.221
12.7530,0.1468,-0.1852,-0.0490,0.241
12.7570,0.1085,0.0637,-0.2090,0.244
12.7630,-0.1447,0.1377,0.2716,0.337
12.7670,0.1040,-0.0943,-0.0108,0.141
12.7720,0.0367,-0.1206,-0.0514,0.136
12.7760,-0.0085,0.0612,-0.5006,0.504
12.7810,-0.3070,0.0659,0.1477,0.347
12.7870,0.1233,-0.0801,0.2407,0.282
12.7920,0.1013,-0.0920,0.0253,0.139
12.7960,0.0587,0.0730,-0.7275,0.734
12.8010,-0.2112,0.0515,0.1863,0.286
12.8070,0.2019,-0.1612,0.4752,0.541
12.8110,0.1079,-0.0822,0.0492,0.144
12.8160,-0.0588,0.0683,-0.8231,0.828
12.8280,-0.3356,0.1041,0.3227,0.477
12.8300,0.1302,-0.0992,0.5373,0.562
12.8360,0.1176,-0.1398,0.0324,0.186
12.8380,-0.0300,0.0538,-0.9260,0.928
12.8410,-0.2613,0.1375,0.2869,0.412
12.8460,0.1134,-0.0323,0.5852,0.597
12.8500,0.1273,-0.1113,-0.0273,0.171
12.8560,-0.1828,-0.0372,-0.9832,1.001
12.8600,-0.3590,0.1422,0.3778,0.540
12.8650,0.0947,0.0370,0.6522,0.660
12.8750,0.2018,-0.0611,-0.0680,0.222
12.8770,-0.1178,0.0488,-0.8255,0.835
12.8800,-0.2535,0.0704,0.4087,0.486
12.8850,0.1473,-0.0660,0.6018,0.623
12.8900,0.2640,-0.1544,-0.0872,0.318
12.8950,-0.1586,0.0391,-0.7419,0.760
12.8990,-0.3826,0.1610,0.2699,0.495
12.9060,-0.0363,-0.0135,0.6089,0.610
12.9090,0.1831,-0.2573,-0.0371,0.318
12.9140,-0.0554,0.0845,-0.6106,0.619
12.9190,-0.1791,0.1633,0.1692,0.296
12.9240,0.0092,0.1105,0.6613,0.671
12.9290,0.3075,-0.2482,-0.0995,0.408
12.9340,-0.0843,-0.0712,-0.5224,0.534
12.9420,-0.1577,0.1727,0.0495,0.239
12.9440,-0.0936,0.1605,0.5967,0.625
12.9490,0.3888,-0.2126,-0.0493,0.446
12.9540,-0.1348,-0.0620,-0.4531,0.477
12.9590,-0.1124,0.1723,-0.1180,0.237
12.9650,-0.1535,0.1291,0.6158,0.648
12.9680,0.4292,-0.2009,0.1968,0.513
12.9770,-0.1110,-0.0670,-0.4989,0.515
12.9810,-0.1433,0.2055,-0.1541,0.294
12.9830,-0.1818,0.1098,0.5798,0.617
12.9890,0.5131,-0.3109,0.1489,0.618
12.9930,0.0062,-0.1362,-0.4296,0.451
12.9980,-0.1505,0.2176,-0.2331,0.353
13.0030,-0.2726,0.1673,0.6514,0.726
13.0090,0.4964,-0.2630,0.1846,0.591
13.0120,0.0778,-0.2772,-0.4944,0.572
13.0180,-0.0098,0.1652,-0.3145,0.355
13.0250,-0.2466,0.3228,0.7231,0.829
13.0270,0.3864,-0.0863,0.0458,0.399
13.0350,0.1304,-0.2177,-0.4704,0.534
13.0370,-0.0006,-0.0335,-0.3456,0.347
13.0420,-0.2039,0.2319,0.5295,0.613
13.0470,0.2692,-0.0385,-0.0303,0.274
13.0520,0.0371,-0.1270,-0.4151,0.436
13.0580,-0.0603,-0.0457,-0.5077,0.513
13.0620,-0.2325,0.0406,0.6209,0.664
13.0670,0.3765,-0.2056,0.1875,0.468
13.0730,0.1682,-0.1290,-0.3193,0.383
13.0770,-0.0488,0.0791,-0.4790,0.488
13.0820,-0.1635,0.1747,0.5994,0.645
13.0870,0.3641,-0.1624,0.1660,0.432
13.0920,0.1200,-0.2602,-0.1926,0.345
13.0970,-0.0133,0.0244,-0.5246,0.525
13.1010,-0.3383,0.1942,0.5634,0.685
13.1070,0.1491,-0.1645,0.2688,0.349
13.1110,0.0197,-0.2934,-0.1306,0.322
13.1160,0.0561,-0.0327,-0.6945,0.698
13.1210,-0.0634,0.2039,0.4798,0.525
13.1260,0.2371,0.0220,0.4911,0.546
13.1310,0.1077,-0.1645,-0.1428,0.243
13.1360,-0.1761,-0.0212,-0.8882,0.906
13.1510,-0.2380,0.1439,0.4870,0.561
13.1520,0.1342,-0.1264,0.4578,0.493
13.1530,0.0575,-0.1957,-0.1379,0.246
13.1570,-0.2502,0.0864,-0.8260,0.867
13.1700,-0.3047,0.2250,0.4058,0.555
13.1710,0.1321,-0.0763,0.4818,0.505
13.1730,0.1962,-0.3345,-0.0828,0.397
13.1770,-0.2407,-0.0523,-0.7519,0.791
13.1820,-0.4000,0.2895,0.4798,0.689
13.1860,0.0082,0.1050,0.6704,0.679
13.1910,0.2516,-0.3158,-0.1717,0.439
13.1950,-0.1997,-0.1219,-0.6112,0.654
13.2000,-0.2397,0.2557,0.3885,0.523
13.2040,-0.0155,0.1598,0.5768,0.599
13.2090,0.3429,-0.2229,-0.3631,0.547
13.2140,-0.1422,-0.1557,-0.5562,0.595
13.2190,-0.1299,0.1743,0.2881,0.361
13.2250,0.0249,0.1620,0.4311,0.461
13.2330,0.4094,-0.1991,-0.2075,0.500
13.2340,-0.1071,-0.0890,-0.3291,0.357
13.2390,-0.1258,0.1620,0.2903,0.355
13.2440,-0.1739,0.1593,0.4333,0.493
13.2490,0.2182,-0.2472,-0.1814,0.376
13.2530,0.0006,-0.1921,-0.2505,0.316
13.2590,0.0391,0.1665,0.1274,0.213
13.2640,-0.1286,0.2380,0.4331,0.511
13.2680,0.1463,-0.1018,-0.0430,0.183
13.2740,-0.0952,-0.1758,-0.2963,0.357
13.2790,0.0127,0.0993,-0.0115,0.101
13.2830,-0.0449,0.0802,0.3542,0.366
13.2880,0.2036,-0.0897,0.3011,0.374
13.2960,0.0505,0.0609,-0.3134,0.323
13.2980,0.0102,0.1588,-0.3441,0.379
13.3030,-0.0403,0.1205,0.4498,0.467
13.3140,0.3679,-0.1950,0.2700,0.496
13.3140,0.0665,-0.0324,-0.4019,0.409
13.3180,-0.0593,0.1589,-0.6189,0.642
13.3230,-0.2720,0.0633,0.6843,0.739
13.3280,0.3298,-0.2425,0.3585,0.544
13.3330,0.1192,-0.0846,-0.4928,0.514
13.3380,-0.0688,0.1402,-0.6475,0.666
13.3450,-0.3126,0.1306,0.8326,0.899
13.3480,0.2035,-0.1730,0.2843,0.390
13.3590,0.1198,-0.0772,-0.6743,0.689
13.3600,-0.0179,-0.0030,-0.6783,0.679
13.3690,-0.1615,0.0975,0.9859,1.004
13.3700,0.2706,-0.0818,0.2581,0.383
13.3720,-0.0257,-0.1798,-0.7124,0.735
13.3770,-0.2923,-0.1843,-0.5251,0.629
13.3810,-0.0962,0.0407,0.8282,0.835
13.3870,0.3690,-0.0693,0.2798,0.468
13.3920,0.1395,0.0763,-0.6071,0.628
13.3960,-0.2778,-0.0791,-0.4869,0.566
13.4010,-0.0842,0.0144,0.8162,0.821
13.4060,0.2448,-0.1052,0.2535,0.368
13.4110,0.0299,0.0118,-0.5641,0.565
13.4160,-0.2989,0.0095,-0.4271,0.521
13.4210,0.0045,-0.0454,0.7707,0.772
13.4300,0.2355,-0.1028,0.0743,0.267
13.4370,-0.1011,0.0549,-0.4062,0.422
13.4370,-0.2363,-0.0958,-0.2886,0.385
13.4420,0.1120,-0.0359,0.7179,0.728
13.4540,0.2282,-0.0359,-0.0167,0.232
13.4550,-0.2563,0.0286,-0.2413,0.353
13.4560,-0.2241,-0.1412,-0.3246,0.419
13.4610,0.1981,0.0502,0.5122,0.551
13.4660,0.2042,-0.0050,-0.0022,0.204
13.4700,-0.3687,-0.0002,0.0432,0.371
13.4760,-0.2123,-0.0863,-0.3297,0.402
13.4790,0.0716,0.1122,0.1630,0.210
13.4840,0.3935,-0.0553,0.1318,0.419
13.4890,0.1661,-0.1413,0.1531,0.266
13.4950,-0.0751,0.0595,-0.2366,0.255
13.4990,-0.1704,0.1311,-0.0428,0.219
13.5040,0.1160,-0.0865,0.4137,0.438
13.5090,0.2970,-0.3327,0.0882,0.455
13.5140,0.0364,0.1406,-0.3923,0.418
13.5200,-0.0586,0.2885,-0.0978,0.310
13.5300,0.0581,0.0875,0.6551,0.663
13.5310,0.1413,-0.2976,-0.0746,0.338
13.5340,-0.1236,0.0013,-0.5023,0.517
13.5390,-0.0156,0.1637,-0.0381,0.169
13.5460,0.0601,-0.0015,0.8797,0.882
13.5540,0.1531,-0.1522,-0.0630,0.225
13.5550,-0.2119,0.1059,-0.6293,0.672
13.5600,-0.0584,0.1631,0.0789,0.190
13.5640,0.0889,-0.0784,0.8387,0.847
13.5680,0.2846,-0.1693,-0.2282,0.402
13.5730,-0.1117,0.1343,-0.3785,0.417
13.5790,-0.1375,0.1676,0.0044,0.217
13.5830,-0.1331,-0.0499,0.6640,0.679
13.5880,0.2756,-0.3177,-0.3263,0.532
13.5940,0.0915,0.0411,-0.2255,0.247
13.5980,-0.0325,0.2108,0.0329,0.216
13.6030,-0.2214,0.1293,0.4320,0.502
13.6090,0.2281,-0.3082,-0.2497,0.458
13.6120,0.0842,-0.1405,-0.0773,0.181
13.6180,0.0270,0.0939,-0.0844,0.129
13.6220,-0.1736,0.1680,0.3340,0.412
13.6280,0.2136,-0.0736,-0.0632,0.235
13.6320,0.0985,-0.1332,-0.1467,0.221
13.6370,0.0631,-0.0900,-0.1967,0.225
13.6450,-0.1018,0.0272,0.3986,0.412
13.6480,0.2396,0.0701,0.1185,0.276
13.6520,0.0362,0.1513,-0.1947,0.249
13.6570,-0.1019,0.1058,-0.3474,0.377
13.6650,-0.0828,-0.0279,0.3484,0.359
13.6710,0.3013,-0.2931,0.2835,0.507
13.6710,0.0715,-0.1136,-0.3526,0.377
13.6770,-0.2623,0.0873,-0.4262,0.508
13.6820,-0.2166,0.1615,0.4968,0.566
13.6860,0.2534,-0.1446,0.3456,0.452
13.6910,0.1575,-0.2424,-0.3646,0.465
13.6970,-0.0474,0.0303,-0.4430,0.447
13.7010,-0.1144,0.2048,0.4872,0.541
13.7060,0.1264,-0.0560,-0.0272,0.141
13.7130,-0.0312,-0.2543,-0.1969,0.323
13.7150,-0.1262,-0.1153,-0.1560,0.231
13.7210,0.0147,0.1622,0.4608,0.489
13.7260,0.1816,-0.0698,-0.0680,0.206
13.7310,0.0169,-0.1678,-0.1252,0.210
13.7370,-0.2456,-0.0243,-0.2995,0.388
13.7400,-0.1165,0.1144,0.3580,0.394
13.7480,0.1627,-0.1557,-0.0009,0.225
13.7520,0.1674,-0.2273,-0.1204,0.307
13.7560,-0.1407,0.1290,-0.4190,0.460
13.7630,-0.2670,0.1887,0.1575,0.363
13.7660,0.0077,-0.0913,0.2553,0.271
13.7700,0.1294,-0.2824,-0.0485,0.314
13.7760,-0.0377,0.0906,-0.4882,0.498
13.7800,-0.1377,0.2123,0.0692,0.262
13.7850,-0.0304,-0.0173,0.4133,0.415
13.7900,0.1439,-0.2801,-0.0748,0.324
13.7970,-0.0542,0.0021,-0.6076,0.610
13.7990,-0.0872,0.1670,0.1579,0.246
13.8040,0.0605,0.0569,0.6429,0.648
13.8100,0.1869,-0.1607,-0.1753,0.302
13.8150,-0.1783,-0.0052,-0.5933,0.620
13.8190,-0.1395,0.1072,0.1722,0.246
13.8240,0.0369,-0.0602,0.7145,0.718
13.8300,0.3306,-0.1606,-0.2853,0.465
13.8340,-0.1448,0.0570,-0.4356,0.463
13.8380,-0.1847,0.1909,0.2604,0.372
13.8440,-0.0513,0.0831,0.6138,0.622
13.8480,0.3166,-0.2015,-0.3572,0.518
13.8610,-0.0968,-0.0915,-0.3066,0.334
13.8610,-0.1227,0.1621,0.2912,0.355
13.8640,-0.1444,0.1453,0.4199,0.467
13.8680,0.2333,-0.1105,-0.2259,0.343
13.8730,-0.0464,-0.0745,-0.1180,0.147
13.8780,-0.0078,0.0690,-0.0271,0.075
13.8830,-0.0821,0.1454,0.2741,0.321
13.8870,0.1450,-0.0842,-0.0752,0.184
13.8930,-0.0917,-0.0410,-0.1420,0.174
13.9010,0.0283,-0.0553,-0.1275,0.142
13.9020,0.0018,0.0309,0.3029,0.304
13.9070,0.3002,-0.1173,0.0874,0.334
13.9140,0.0442,-0.0169,-0.1326,0.141
13.9170,-0.0198,0.1385,-0.2041,0.247
13.9220,-0.0343,0.0643,0.3363,0.344
13.9280,0.3547,-0.2966,0.0729,0.468
13.9320,0.0676,-0.0335,-0.0992,0.125
13.9370,0.0203,0.1624,-0.3596,0.395
13.9410,-0.1545,0.1432,0.4223,0.472
13.9480,0.2993,-0.2633,0.0896,0.409
13.9520,-0.0569,-0.1579,-0.1232,0.208
13.9570,-0.0226,0.0836,-0.4241,0.433
13.9620,-0.0968,0.1314,0.3818,0.415
13.9670,0.3233,-0.1794,0.0443,0.372
13.9710,-0.0140,-0.1171,-0.0035,0.118
13.9790,-0.0325,0.1601,-0.5150,0.540
13.9810,-0.2739,0.0452,0.3197,0.423
13.9860,0.2396,-0.1987,0.2333,0.389
13.9910,0.0527,-0.1651,-0.0131,0.174
13.9960,0.0556,0.2029,-0.6106,0.646
14.0010,-0.2813,0.1189,0.2147,0.373
14.0060,0.1653,-0.2566,0.4152,0.515
14.0140,0.2078,-0.2230,-0.0418,0.308
14.0160,0.0385,0.2023,-0.6655,0.697
14.0200,-0.2719,0.2499,0.2172,0.428
14.0250,0.0455,-0.1352,0.5467,0.565
14.0310,0.2436,-0.3261,-0.0825,0.415
14.0370,-0.1408,0.0398,-0.7874,0.801
14.0400,-0.3911,0.1975,0.3272,0.547
14.0500,-0.0998,0.0276,0.6901,0.698
14.0510,0.2800,-0.2138,-0.2691,0.443
14.0600,-0.0974,-0.0393,-0.8232,0.830
14.0660,-0.2546,0.1114,0.5663,0.631
14.0670,-0.0279,0.1327,0.6731,0.687
14.0700,0.2779,-0.0779,-0.3601,0.461
14.0750,-0.1137,-0.0037,-0.6488,0.659
14.0800,-0.2042,0.0537,0.6186,0.654
14.0840,0.0727,0.0345,0.6608,0.666
14.0890,0.3043,-0.0804,-0.3915,0.502
14.0950,-0.1901,0.0463,-0.5559,0.589
14.0990,-0.2231,0.0989,0.3888,0.459
14.1040,0.0584,0.0820,0.4838,0.494
14.1090,0.2924,-0.1285,-0.3747,0.492
14.1140,-0.1543,-0.0591,-0.5128,0.539
14.1190,-0.1800,0.1132,0.3051,0.372
14.1230,0.0395,0.0821,0.4003,0.411
14.1310,0.2758,-0.2049,-0.4271,0.548
14.1360,-0.0562,-0.1185,-0.3811,0.403
14.1380,-0.1420,0.1614,0.2551,0.334
14.1460,0.0417,0.1732,0.4722,0.505
14.1480,0.2206,-0.1712,-0.2597,0.381
14.1530,-0.0470,-0.1782,-0.2402,0.303
14.1580,-0.1638,0.0228,0.1926,0.254
14.1680,-0.1519,0.1470,0.4170,0.468
14.1680,0.1327,-0.1639,-0.1499,0.259
14.1730,-0.1134,-0.1302,-0.1688,0.241
14.1800,-0.0843,0.1496,0.0823,0.190
14.1840,-0.0535,0.1614,0.3762,0.413
14.1880,0.2189,-0.0921,-0.0664,0.247
14.1930,-0.1062,-0.0896,-0.1595,0.212
14.1980,0.0044,0.1231,-0.2334,0.264
14.2030,0.0136,-0.0179,0.3500,0.351
14.2070,0.2401,-0.2785,0.0700,0.374
14.2120,-0.1661,-0.0178,-0.2647,0.313
14.2170,-0.1221,0.2977,-0.3719,0.492
14.2220,0.0665,0.0322,0.4817,0.487
14.2320,0.2998,-0.4888,0.1083,0.584
14.2330,-0.0920,0.0446,-0.3722,0.386
14.2390,-0.2178,0.2835,-0.4004,0.537
14.2420,0.0972,-0.1612,0.6373,0.665
14.2470,0.3162,-0.3258,0.1155,0.468
14.2520,-0.0346,0.0997,-0.6135,0.623
14.2570,-0.1725,0.2310,-0.2137,0.359
14.2620,0.0659,-0.0990,0.6230,0.634
14.2660,0.2252,-0.3667,-0.1497,0.456
14.2710,-0.0468,-0.0748,-0.4171,0.426
14.2760,-0.2590,0.1402,-0.2230,0.369
14.2810,-0.0656,0.0373,0.4703,0.476
14.2860,0.3118,-0.2664,-0.1182,0.427
14.2910,0.1992,-0.1610,-0.0679,0.265
14.2960,-0.0158,0.1617,-0.2136,0.268
14.3010,-0.2212,0.2882,0.3411,0.498
14.3050,0.0848,-0.1304,-0.0608,0.167
14.3120,0.2326,-0.3573,0.0564,0.430
14.3150,0.0007,-0.0464,-0.4479,0.450
14.3200,-0.1923,0.2451,0.0211,0.312
14.3250,0.0562,0.0153,0.1668,0.177
14.3300,0.1702,-0.1904,0.0471,0.260
14.3370,-0.0351,0.0034,-0.4954,0.497
14.3400,-0.1014,0.1827,-0.0360,0.212
14.3530,0.1372,-0.0326,0.4922,0.512
14.3530,0.2275,-0.1927,0.0423,0.301
14.3600,-0.1617,0.0081,-0.6436,0.664
14.3610,-0.2326,0.1683,0.0598,0.293
14.3690,0.0633,0.0247,0.7074,0.711
14.3730,0.2754,-0.1594,-0.0702,0.326
14.3750,-0.1352,0.0653,-0.6317,0.649
14.3800,-0.2110,0.1682,0.2151,0.345
14.3840,-0.0489,0.0557,0.6760,0.680
14.3890,0.3214,-0.2287,-0.2234,0.453
14.3940,-0.0345,-0.0134,-0.4836,0.485
14.4040,-0.1177,0.1635,0.2363,0.311
14.4050,-0.0966,0.1586,0.5061,0.539
14.4090,0.2046,-0.1738,-0.3477,0.439
14.4170,-0.0534,-0.1331,-0.3879,0.414
14.4190,-0.0747,0.0894,0.2507,0.276
14.4240,-0.1204,0.1514,0.4654,0.504
14.4290,0.2216,-0.0854,-0.2688,0.359
14.4340,-0.0246,-0.0877,-0.2159,0.234
14.4390,-0.0244,0.0870,0.1405,0.167
14.4430,-0.1321,0.0990,0.2741,0.320
14.4480,0.1309,-0.0827,-0.0536,0.164
14.4530,-0.0842,-0.0778,-0.2663,0.290
14.4580,-0.0576,0.0060,-0.0413,0.071
14.4630,-0.1272,-0.0202,0.3172,0.342
14.4680,0.1118,-0.1541,-0.0488,0.197
14.4720,-0.1079,-0.0417,-0.3809,0.398
14.4780,-0.0548,0.1138,-0.1295,0.181
14.4890,-0.0504,0.0206,0.2745,0.280
14.4890,0.2290,-0.1994,0.0208,0.304
14.4920,-0.0888,-0.1491,-0.2110,0.273
14.4970,-0.0691,0.1570,-0.2920,0.339
14.5020,-0.0430,0.0494,0.2604,0.269
14.5070,0.3986,-0.2183,0.1143,0.469
14.5120,0.0613,-0.0986,-0.1152,0.164
14.5180,-0.0409,0.1619,-0.3828,0.418
14.5220,-0.2083,0.0877,0.2510,0.338
14.5270,0.3292,-0.2566,0.1527,0.444
14.5320,0.0731,-0.0818,-0.0243,0.112
14.5370,0.0091,0.1667,-0.6098,0.632
14.5420,-0.1678,0.1426,0.3350,0.401
14.5490,0.3242,-0.3236,0.1266,0.475
14.5510,0.0370,-0.1847,-0.0074,0.189
14.5560,-0.0818,0.1642,-0.6072,0.634
14.5610,-0.3994,0.1592,0.2300,0.488
14.5660,0.1908,-0.2569,0.2918,0.433
14.5710,0.1544,-0.2807,-0.0192,0.321
14.5760,0.0426,0.1616,-0.7074,0.727
14.5820,-0.3297,0.2308,0.2111,0.455
14.5860,0.1050,-0.0850,0.5144,0.532
14.5910,0.2693,-0.2474,-0.1554,0.397
14.5970,-0.0053,0.0108,-0.7599,0.760
14.6010,-0.3297,0.1614,0.2568,0.448
14.6060,0.0261,0.0202,0.7010,0.702
14.6110,0.2528,-0.1521,-0.2678,0.398
14.6160,-0.0862,-0.0444,-0.8291,0.835
14.6220,-0.1909,0.1063,0.5366,0.579
14.6270,0.1240,0.0583,0.6482,0.663
14.6310,0.2432,-0.0948,-0.3085,0.404
14.6360,-0.3011,-0.0661,-0.7288,0.791
14.6420,-0.3602,0.1039,0.7323,0.823
14.6460,0.1055,0.1038,0.5785,0.597
14.6500,0.4326,-0.0685,-0.4570,0.633
14.6550,-0.1360,-0.0899,-0.4684,0.496
14.6590,-0.2430,0.1350,0.6936,0.747
14.6650,0.0099,0.1491,0.2960,0.332
14.6690,0.1820,-0.0949,-0.4954,0.536
14.6740,-0.2933,-0.0851,-0.1506,0.341
14.6820,-0.1877,0.1564,0.6335,0.679
14.6840,-0.0207,0.1013,0.0591,0.119
14.6890,0.1517,-0.2572,-0.2158,0.368
14.6940,-0.1876,-0.2186,-0.1247,0.314
14.6990,-0.1060,0.1331,0.2315,0.287
14.7040,-0.0393,0.1616,0.0855,0.187
14.7090,0.1470,-0.1230,-0.0294,0.194
14.7150,-0.1710,-0.1206,-0.2014,0.290
14.7180,-0.1609,0.1353,0.1119,0.238
14.7240,-0.1086,0.1471,0.3125,0.362
14.7280,0.2593,-0.1470,-0.0129,0.298
14.7330,0.0153,-0.0370,-0.3546,0.357
14.7380,-0.0298,0.1638,-0.0722,0.181
14.7430,-0.1400,0.0345,0.5541,0.573
14.7500,0.1490,-0.4054,-0.0130,0.432
14.7530,-0.0015,-0.1445,-0.5555,0.574
14.7590,0.0897,0.1710,-0.1772,0.262
14.7680,0.0221,0.1804,0.4969,0.529
14.7680,0.2296,-0.2023,0.0351,0.308
14.7720,0.0003,-0.1879,-0.4812,0.517
14.7770,0.0101,0.0394,-0.0384,0.056
14.7830,-0.0479,0.0369,0.5901,0.593
14.7880,0.2580,-0.2286,-0.0917,0.357
14.7920,-0.0957,-0.1425,-0.4071,0.442
14.7990,0.0505,0.1301,-0.0290,0.142
14.8020,-0.0432,0.1682,0.4658,0.497
14.8070,0.2889,-0.0831,-0.1251,0.326
14.8150,0.0043,-0.0782,-0.1680,0.185
14.8170,0.1072,0.0987,-0.1582,0.215
14.8220,-0.0125,0.0461,0.3558,0.359
14.8280,0.1858,-0.2073,-0.0270,0.280
14.8320,-0.0389,-0.0996,-0.0819,0.135
14.8510,0.0284,0.1610,-0.3447,0.381
14.8520,-0.1150,0.1440,0.2723,0.329
14.8530,0.2003,-0.1955,0.0855,0.293
14.8540,0.0758,-0.1020,-0.0245,0.129
14.8630,0.0403,0.1322,-0.5335,0.551
14.8630,-0.2847,0.0700,0.2080,0.359
14.8660,0.1527,-0.2385,0.2364,0.369
14.8750,0.0973,-0.1283,0.0641,0.173
14.8790,-0.0050,0.1609,-0.5860,0.608
14.8820,-0.3558,0.1679,0.1484,0.420
14.8850,0.1080,-0.1262,0.4875,0.515
14.8900,0.1528,-0.1954,0.0520,0.253
14.8950,0.0170,0.0581,-0.7176,0.720
14.9000,-0.3600,0.1274,0.1389,0.406
14.9050,0.0606,-0.0280,0.7075,0.711
14.9100,0.2057,-0.0997,0.0159,0.229
14.9160,-0.0615,0.0102,-0.7847,0.787
14.9200,-0.3117,0.1514,0.1077,0.363
14.9250,0.0895,0.0293,0.7624,0.768
14.9300,0.2252,-0.0640,-0.0320,0.236
14.9350,-0.1876,-0.0712,-0.9090,0.931
14.9400,-0.3350,0.0438,0.1532,0.371
14.9440,0.1089,-0.0732,0.8078,0.818
14.9510,0.1776,-0.0995,0.0373,0.207
14.9560,-0.2087,0.0702,-0.9235,0.949
14.9600,-0.4108,0.1612,0.1459,0.465
14.9680,0.1838,-0.1232,0.8890,0.916
14.9690,0.2306,-0.1351,-0.0609,0.274
14.9740,-0.2608,0.0418,-0.9761,1.011
14.9790,-0.2549,0.1686,0.3228,0.445
14.9840,0.2434,-0.1040,0.8720,0.911
14.9890,0.2761,-0.0394,-0.1949,0.340
14.9940,-0.2725,0.0011,-0.7921,0.838
14.9990,-0.1139,0.1613,0.3178,0.374
15.0040,0.2120,-0.0801,0.7642,0.797
15.0080,0.3335,-0.0325,-0.3504,0.485
15.0130,-0.3372,-0.0301,-0.5602,0.655
15.0200,-0.0449,0.1611,0.3414,0.380
15.0260,0.2358,-0.0780,0.4748,0.536
15.0300,0.4243,-0.0948,-0.3933,0.586
15.0420,-0.2325,-0.1379,-0.2828,0.391
15.0430,-0.2296,0.1778,0.3795,0.478
15.0440,-0.0506,0.0797,0.1974,0.219
15.0530,0.3533,-0.3029,-0.2999,0.554
15.0540,0.1021,-0.3002,-0.0797,0.327
15.0580,-0.0674,0.2640,0.0853,0.286
15.0630,-0.1558,0.2899,0.0661,0.336
15.0710,0.2312,-0.2363,-0.0774,0.340
15.0730,0.0492,-0.3962,-0.0725,0.406
15.0780,0.0590,0.1515,-0.0963,0.189
15.0820,-0.0843,0.2707,0.1332,0.313
15.0880,0.1737,-0.1814,0.0566,0.257
15.0920,-0.0918,-0.2983,-0.0534,0.317
15.0970,0.0927,0.0796,-0.4453,0.462
15.1050,-0.0558,0.1631,0.1503,0.229
15.1070,0.2498,-0.0929,0.2648,0.376
15.1110,-0.0755,-0.1933,-0.2469,0.323
15.1170,0.0090,0.1272,-0.5238,0.539
15.1210,-0.1490,0.1510,0.2965,0.365
15.1260,0.1160,-0.2127,0.3296,0.409
15.1360,0.0849,-0.1217,-0.2467,0.288
15.1370,0.0782,0.0073,-0.5619,0.567
15.1420,-0.1180,0.0527,0.4760,0.493
15.1460,0.0944,-0.1409,0.3368,0.377
15.1510,0.0730,-0.0166,-0.1774,0.193
15.1560,0.1019,0.1243,-0.6074,0.628
15.1610,0.0059,0.0549,0.4712,0.474
15.1670,0.2348,-0.1962,0.2675,0.406
15.1710,0.0244,-0.0885,-0.0889,0.128
15.1750,-0.1759,0.1361,-0.5668,0.609
15.1800,-0.2356,0.1146,0.4352,0.508
15.1860,0.2491,-0.1485,0.2292,0.370
15.1910,0.1243,-0.0863,-0.0053,0.151
15.1950,0.0722,0.1765,-0.6577,0.685
15.2000,-0.3626,0.1501,0.4137,0.570
15.2050,0.1129,-0.2109,0.4060,0.471
15.2100,0.0478,-0.2824,0.1020,0.304
15.2170,-0.0092,0.1216,-0.5649,0.578
15.2200,-0.2837,0.1669,0.1743,0.372
15.2250,0.1486,0.0042,0.5636,0.583
15.2300,0.1098,-0.2300,0.0634,0.263
15.2350,-0.0426,0.0451,-0.7038,0.707
15.2390,-0.1950,0.1598,0.0547,0.258
15.2440,0.2251,0.0760,0.7477,0.785
15.2530,0.3008,-0.2206,0.0059,0.373
15.2580,-0.1265,-0.0102,-0.7589,0.769
15.2600,-0.2451,0.1309,0.0236,0.279
15.2750,0.1081,0.0950,0.7261,0.740
15.2750,0.3606,-0.1323,-0.0371,0.386
15.2760,-0.1888,0.0135,-0.7206,0.745
15.2790,-0.2500,0.1355,0.0140,0.285
15.2860,0.0529,-0.0342,0.8074,0.810
15.2940,0.4203,-0.3211,-0.0157,0.529
15.2950,-0.1889,-0.0316,-0.6705,0.697
15.3030,-0.2929,0.2529,0.0521,0.390
15.3030,0.0054,0.1092,0.7976,0.805
15.3080,0.5114,-0.3546,-0.0422,0.624
15.3130,-0.0286,-0.1488,-0.6563,0.674
15.3180,-0.0492,0.2481,0.0471,0.257
15.3230,-0.0380,0.1999,0.7066,0.735
15.3300,0.4014,-0.2449,-0.0208,0.471
15.3340,-0.0430,-0.1946,-0.6851,0.714
15.3380,-0.1211,0.1547,0.1450,0.244
15.3430,-0.1190,0.2096,0.7112,0.751
15.3470,0.3111,-0.2447,-0.1667,0.430
15.3530,0.0293,-0.2541,-0.6039,0.656
15.3590,-0.0157,0.1095,0.1784,0.210
15.3630,-0.0783,0.2504,0.5892,0.645
15.3700,0.2252,-0.1946,-0.3436,0.455
15.3750,-0.0089,-0.2923,-0.4722,0.555
15.3770,-0.0445,0.0499,0.2047,0.215
15.3840,-0.1308,0.2386,0.3933,0.478
15.3890,0.1085,-0.0891,-0.3170,0.347
15.3920,0.0154,-0.2181,-0.2258,0.314
15.3970,0.0202,-0.0314,-0.0534,0.065
15.4070,-0.0565,0.1598,0.3601,0.398
15.4090,0.1134,-0.1081,-0.2211,0.271
15.4130,-0.0227,-0.1581,-0.1563,0.223
15.4180,0.0492,0.0023,-0.1227,0.132
15.4220,-0.0563,0.0716,0.3316,0.344
15.4260,0.1109,-0.2750,0.0659,0.304
15.4310,0.0297,-0.0095,-0.0943,0.099
15.4360,-0.0942,0.1219,-0.3810,0.411
15.4410,-0.1157,0.0095,0.4320,0.447
15.4460,0.1159,-0.2535,0.0945,0.294
15.4530,0.0107,0.0096,-0.1255,0.126
15.4560,-0.1060,0.1290,-0.3499,0.388
15.4610,-0.1634,-0.0719,0.5443,0.573
15.4700,0.1900,-0.2081,0.0441,0.285
15.4710,0.0275,0.0811,-0.2188,0.235
15.4760,-0.0701,0.1455,-0.3189,0.357
15.4800,0.0517,-0.0483,0.5227,0.527
15.4850,0.1300,-0.1797,0.0035,0.222
15.4910,0.0991,-0.0482,-0.1901,0.220
15.4950,-0.0871,0.0306,-0.3548,0.367
15.5000,0.0178,0.0855,0.5227,0.530
15.5060,0.1249,-0.0820,-0.1112,0.186
15.5100,0.0606,-0.1416,-0.0250,0.156
15.5150,-0.0947,-0.0387,-0.2377,0.259
15.5220,-0.1591,0.0234,0.1689,0.233
15.5240,0.1109,-0.1201,0.0850,0.184
15.5300,0.0580,-0.1152,0.1112,0.170
15.5380,0.0057,0.1717,-0.3382,0.379
15.5420,-0.0801,0.1595,-0.0104,0.179
15.5470,0.1562,-0.1586,0.1521,0.270
15.5490,0.1174,-0.2445,0.1997,0.337
15.5560,-0.1167,0.1451,-0.2737,0.331
15.5590,-0.1878,0.2140,-0.1372,0.316
15.5640,0.0343,-0.0802,0.3266,0.338
15.5690,0.2632,-0.3336,0.1518,0.451
15.5740,0.0433,0.0443,-0.2929,0.299
15.5780,-0.1042,0.3119,-0.1635,0.367
15.5850,-0.1975,0.1490,0.4557,0.518
15.5880,0.3063,-0.2576,0.0106,0.400
15.5930,0.0193,-0.1976,-0.3862,0.434
15.5980,-0.0304,0.0775,-0.0128,0.084
15.6040,-0.1501,0.1586,0.4819,0.529
15.6080,0.1988,-0.0258,-0.0947,0.222
15.6130,0.0340,-0.0163,-0.4937,0.495
15.6200,-0.0160,0.0603,0.0566,0.084
15.6230,-0.0427,0.0674,0.4532,0.460
15.6280,0.1675,-0.1406,-0.1496,0.265
15.6330,-0.0595,-0.0592,-0.3836,0.393
15.6410,-0.0998,0.0915,0.0447,0.143
15.6430,-0.1357,0.0842,0.1880,0.247
15.6480,0.1583,-0.1119,-0.0536,0.201
15.6530,0.1057,-0.0879,-0.2136,0.254
15.6620,0.0197,0.0867,-0.0843,0.123
15.6690,-0.0879,0.1512,0.1643,0.240
15.6700,0.1153,-0.0736,0.0016,0.137
15.6720,0.0745,-0.0352,-0.1083,0.136
15.6770,0.0078,0.0749,-0.2850,0.295
15.6820,-0.1261,0.0796,0.2554,0.296
15.6880,0.0817,-0.1116,0.0806,0.160
15.6920,0.0029,-0.0374,-0.1608,0.165
15.6970,-0.1256,0.0176,-0.5048,0.520
15.7040,-0.0944,0.0560,0.4853,0.498
15.7070,0.1896,-0.1973,0.1931,0.335
15.7110,0.1321,-0.0943,-0.3257,0.364
15.7160,-0.1112,-0.0034,-0.5954,0.606
15.7250,-0.2665,0.0685,0.6983,0.751
15.7270,0.1419,-0.2398,0.2433,0.370
15.7310,0.0796,-0.0771,-0.4524,0.466
15.7370,-0.1085,-0.0101,-0.5905,0.600
15.7410,-0.0083,0.0808,0.9302,0.934
15.7460,0.2896,-0.1390,0.0974,0.336
15.7550,0.0172,0.0450,-0.7057,0.707
15.7570,-0.2734,-0.0625,-0.3918,0.482
15.7640,-0.0372,-0.0384,0.9016,0.903
15.7660,0.2201,-0.1891,-0.1821,0.343
15.7710,-0.1402,0.0237,-0.5332,0.552
15.7760,-0.2205,-0.1172,-0.1167,0.276
15.7800,-0.0059,0.0718,0.7151,0.719
15.7870,0.1944,-0.0313,-0.3995,0.445
15.7900,0.0084,-0.0744,-0.2627,0.273
15.7950,-0.0608,-0.0528,0.1582,0.178
15.8000,0.0296,0.0645,0.4305,0.436
15.8050,0.0965,-0.0504,-0.3659,0.382
15.8100,-0.0586,-0.0383,-0.0691,0.098
15.8140,-0.1017,0.0525,0.1150,0.162
15.8230,0.0367,0.0833,0.0145,0.092
15.8260,0.1084,-0.1415,-0.2269,0.289
15.8310,0.0701,-0.2035,0.0745,0.228
15.8410,-0.0757,0.0380,0.1676,0.188
15.8420,-0.0706,0.1095,-0.1385,0.190
15.8510,0.0775,-0.0316,-0.0451,0.095
15.8520,0.1368,-0.1821,0.4425,0.498
15.8580,0.0626,0.0999,0.0069,0.118
15.8590,-0.1496,0.1761,-0.3635,0.431
15.8640,-0.0799,0.0397,0.3874,0.398
15.8690,0.1895,-0.2304,0.4873,0.571
15.8740,0.1081,-0.0152,-0.3259,0.344
15.8780,-0.1112,0.0588,-0.4593,0.476
15.8840,-0.1256,0.0300,0.6000,0.614
15.8890,0.1104,-0.0058,0.4128,0.427
15.8930,0.0103,0.1637,-0.6584,0.678
15.8980,-0.0081,0.1204,-0.4400,0.456
15.9040,0.1013,-0.1162,0.8295,0.844
15.9080,0.3084,-0.2117,0.1258,0.395
15.9130,-0.0520,0.1014,-0.8828,0.890
15.9190,-0.2257,0.1346,-0.2221,0.344
15.9230,-0.0591,0.0078,0.8584,0.860
15.9270,0.3586,-0.0783,-0.0055,0.367
15.9320,0.0434,0.0795,-0.8419,0.847
15.9400,-0.1472,0.0460,-0.0833,0.175
15.9420,-0.2097,-0.0496,0.7796,0.809
15.9470,0.1606,-0.1953,-0.1558,0.297
15.9550,0.0225,-0.0780,-0.8367,0.841
15.9640,-0.0465,-0.0660,0.0462,0.093
15.9650,0.0149,0.1326,0.7678,0.779
15.9680,0.2299,0.0821,-0.3301,0.411
15.9720,-0.0995,-0.0088,-0.6881,0.695
15.9770,0.0108,-0.0709,0.0345,0.080
15.9810,0.1056,-0.0542,0.5315,0.545
15.9870,0.3227,-0.0064,-0.2721,0.422
15.9910,-0.1407,0.0511,-0.3530,0.383
15.9960,-0.1903,-0.0016,-0.0539,0.198
16.0030,-0.0639,-0.0876,0.3405,0.357
16.0070,0.3445,-0.2597,-0.3123,0.533
16.0110,0.0073,-0.0300,-0.0634,0.071
16.0160,-0.1954,0.1589,-0.0681,0.261
16.0210,-0.1736,0.1755,0.3454,0.425
16.0260,0.2445,-0.2501,-0.2023,0.404
16.0310,0.1198,-0.3143,-0.0132,0.337
16.0440,-0.0328,0.0492,-0.0921,0.109
16.0450,-0.1114,0.2594,0.3024,0.414
16.0570,0.0916,-0.0277,-0.0589,0.112
16.0570,0.0986,-0.2475,0.0057,0.266
16.0580,-0.0470,-0.1063,-0.2357,0.263
16.0610,-0.0015,0.1614,0.3215,0.360
16.0670,0.1199,0.0010,0.1060,0.160
16.0710,0.0887,-0.1138,0.0365,0.149
16.0750,-0.0733,0.0082,-0.4248,0.431
16.0800,-0.1711,0.0489,0.2832,0.334
16.0850,0.1081,-0.1113,0.2326,0.280
16.0900,0.0076,-0.0395,0.0507,0.065
16.0950,-0.1808,0.1755,-0.5349,0.591
16.0990,-0.3237,0.0894,0.2091,0.396
16.1070,0.1135,-0.2595,0.3737,0.469
16.1100,0.1394,-0.2687,-0.0139,0.303
16.1150,-0.0012,0.2477,-0.4536,0.517
16.1210,-0.3379,0.2404,0.1062,0.428
16.1240,0.0110,-0.0346,0.5003,0.502
16.1290,0.2090,-0.4145,-0.0906,0.473
16.1350,0.0777,0.0710,-0.5350,0.545
16.1400,-0.2662,0.1880,0.1325,0.352
16.1440,-0.1228,0.1567,0.6007,0.633
16.1490,0.1854,-0.1017,-0.2102,0.298
16.1570,0.0301,0.0179,-0.6568,0.658
16.1600,-0.0987,0.0251,0.1589,0.189
16.1640,-0.0632,0.0035,0.7060,0.709
16.1700,0.2425,-0.0181,-0.2939,0.381
16.1750,-0.1063,0.0153,-0.7284,0.736
16.1780,-0.1870,0.0298,0.3097,0.363
16.1830,-0.0035,-0.0705,0.6654,0.669
16.1880,0.3093,-0.0920,-0.2364,0.400
16.1930,-0.0610,0.1280,-0.5755,0.593
16.1980,-0.1227,0.1303,0.3047,0.353
16.2040,0.0800,-0.0108,0.7082,0.713
16.2080,0.3354,-0.2521,-0.2845,0.507
16.2130,-0.1185,-0.0129,-0.4825,0.497
16.2170,-0.1324,0.1235,0.2757,0.330
16.2230,-0.0491,0.1282,0.5932,0.609
16.2280,0.3857,-0.1803,-0.4089,0.590
16.2330,-0.0827,-0.1920,-0.4418,0.489
16.2380,0.0059,0.0402,0.2757,0.279
16.2430,0.0340,0.1501,0.4092,0.437
16.2470,0.2729,-0.1131,-0.3346,0.446
16.2570,-0.0591,-0.1130,-0.3222,0.347
16.2580,0.0511,0.0616,0.1872,0.204
16.2660,0.0984,0.0783,0.4236,0.442
16.2670,0.3133,-0.1680,-0.2389,0.428
16.2720,-0.0597,-0.0746,-0.0976,0.137
16.2770,-0.0451,0.1430,-0.0019,0.150
16.2810,-0.0405,0.1094,0.2562,0.282
16.2870,0.3011,-0.2467,-0.1743,0.427
16.2920,0.0571,-0.2225,-0.0809,0.243
16.2960,0.0048,0.1601,-0.1310,0.207
16.3010,-0.1027,0.2483,0.2420,0.362
16.3070,0.1388,-0.1273,-0.1024,0.214
16.3120,0.0286,-0.2944,-0.0880,0.309
16.3160,0.0359,0.0524,-0.2312,0.240
16.3210,-0.1721,0.1623,0.1849,0.300
16.3260,0.1076,-0.1080,-0.0233,0.154
16.3320,-0.0406,-0.1820,-0.0591,0.196
16.3390,0.0196,0.0906,-0.3171,0.330
16.3480,-0.1477,0.1358,0.2043,0.286
16.3480,0.1272,-0.1919,0.2112,0.312
16.3510,0.0601,-0.2204,-0.1523,0.275
16.3560,-0.0494,0.1382,-0.3027,0.336
16.3640,-0.2070,0.1429,0.3405,0.423
16.3650,0.1012,-0.0747,0.3736,0.394
16.3710,0.1081,-0.1894,-0.2793,0.354
16.3760,-0.0445,0.0736,-0.4439,0.452
16.3800,-0.2164,0.0950,0.3931,0.459
16.3850,-0.0706,0.0065,0.3640,0.371
16.3900,0.0802,-0.0892,-0.3630,0.382
16.3950,-0.0964,0.0113,-0.4223,0.433
16.4000,-0.0796,0.0234,0.4362,0.444
16.4070,0.0589,0.0090,0.3950,0.399
16.4100,0.0495,-0.0245,-0.2675,0.273
16.4140,-0.1842,0.0520,-0.4559,0.494
16.4190,-0.1673,0.0114,0.4313,0.463
16.4240,0.0977,-0.0533,0.3542,0.371
16.4290,0.1263,0.0256,-0.1815,0.223
16.4340,-0.1602,0.0470,-0.4991,0.526
16.4410,-0.1789,0.0088,0.3929,0.432
